Time;X;Y;Z;Vx;Vy;Vz;Ax;Ay;Az;Jx;Jy;Jz
0.000000;0.000000;0.000000;0.000000;0.100000;0.000000;0.000000;0.000000;0.000000;0.000000;9.770563;16.970563;0.000000
0.008000;0.000801;0.000001;0.000000;0.100305;0.000531;0.000000;0.075317;0.131191;0.000000;9.061435;15.831596;0.000000
0.016000;0.001606;0.000011;0.000000;0.101190;0.002075;0.000000;0.145028;0.253375;0.000000;8.369157;14.718696;0.000000
0.024000;0.002421;0.000037;0.000000;0.102611;0.004561;0.000000;0.209268;0.366760;0.000000;7.693730;13.631863;0.000000
0.032000;0.003250;0.000087;0.000000;0.104524;0.007920;0.000000;0.268173;0.471554;0.000000;7.035155;12.571097;0.000000
0.040000;0.004095;0.000166;0.000000;0.106888;0.012084;0.000000;0.321876;0.567967;0.000000;6.393430;11.536398;0.000000
0.048000;0.004961;0.000282;0.000000;0.109661;0.016986;0.000000;0.370512;0.656206;0.000000;5.768555;10.527765;0.000000
0.056000;0.005850;0.000440;0.000000;0.112803;0.022562;0.000000;0.414217;0.736481;0.000000;5.160532;9.545199;0.000000
0.064000;0.006767;0.000644;0.000000;0.116275;0.028749;0.000000;0.453126;0.808999;0.000000;4.569359;8.588700;0.000000
0.072000;0.007712;0.000901;0.000000;0.120040;0.035486;0.000000;0.487372;0.873969;0.000000;3.995037;7.658268;0.000000
0.080000;0.008688;0.001214;0.000000;0.124061;0.042713;0.000000;0.517091;0.931601;0.000000;3.437566;6.753902;0.000000
0.088000;0.009697;0.001586;0.000000;0.128302;0.050372;0.000000;0.542418;0.982101;0.000000;2.896946;5.875603;0.000000
0.096000;0.010741;0.002020;0.000000;0.132729;0.058408;0.000000;0.563487;1.025680;0.000000;2.373176;5.023371;0.000000
0.104000;0.011821;0.002521;0.000000;0.137307;0.066765;0.000000;0.580434;1.062545;0.000000;1.866257;4.197206;0.000000
0.112000;0.012938;0.003089;0.000000;0.142005;0.075391;0.000000;0.593392;1.092905;0.000000;1.376189;3.397108;0.000000
0.120000;0.014094;0.003728;0.000000;0.146791;0.084235;0.000000;0.602498;1.116968;0.000000;0.902972;2.623076;0.000000
0.128000;0.015287;0.004438;0.000000;0.151635;0.093247;0.000000;0.607885;1.134943;0.000000;0.446606;1.875111;0.000000
0.136000;0.016520;0.005220;0.000000;0.156508;0.102378;0.000000;0.609688;1.147039;0.000000;0.007090;1.153213;0.000000
0.144000;0.017791;0.006076;0.000000;0.161381;0.111584;0.000000;0.608043;1.153464;0.000000;-0.415575;0.457382;0.000000
0.152000;0.019102;0.007006;0.000000;0.166227;0.120819;0.000000;0.603084;1.154427;0.000000;-0.821389;-0.212383;0.000000
0.160000;0.020451;0.008009;0.000000;0.171022;0.130041;0.000000;0.594946;1.150136;0.000000;-1.210352;-0.856080;0.000000
0.168000;0.021838;0.009086;0.000000;0.175738;0.139208;0.000000;0.583763;1.140799;0.000000;-1.582465;-1.473711;0.000000
0.176000;0.023262;0.010236;0.000000;0.180354;0.148281;0.000000;0.569671;1.126626;0.000000;-1.937726;-2.065275;0.000000
0.184000;0.024723;0.011458;0.000000;0.184846;0.157222;0.000000;0.552805;1.107824;0.000000;-2.276137;-2.630773;0.000000
0.192000;0.026220;0.012751;0.000000;0.189192;0.165994;0.000000;0.533298;1.084603;0.000000;-2.597698;-3.170203;0.000000
0.200000;0.027750;0.014114;0.000000;0.193372;0.174564;0.000000;0.511287;1.057171;0.000000;-2.902407;-3.683567;0.000000
0.208000;0.029313;0.015544;0.000000;0.197366;0.182898;0.000000;0.486905;1.025735;0.000000;-3.190266;-4.170864;0.000000
0.216000;0.030907;0.017039;0.000000;0.201156;0.190966;0.000000;0.460287;0.990506;0.000000;-3.461273;-4.632094;0.000000
0.224000;0.032531;0.018598;0.000000;0.204725;0.198737;0.000000;0.431569;0.951691;0.000000;-3.715430;-5.067258;0.000000
0.232000;0.034182;0.020218;0.000000;0.208056;0.206184;0.000000;0.400885;0.909500;0.000000;-3.952737;-5.476354;0.000000
0.240000;0.035859;0.021896;0.000000;0.211134;0.213280;0.000000;0.368370;0.864139;0.000000;-4.173192;-5.859384;0.000000
0.248000;0.037560;0.023630;0.000000;0.213946;0.220002;0.000000;0.334159;0.815819;0.000000;-4.376797;-6.216347;0.000000
0.256000;0.039282;0.025415;0.000000;0.216477;0.226326;0.000000;0.298387;0.764747;0.000000;-4.563551;-6.547244;0.000000
0.264000;0.041022;0.027250;0.000000;0.218716;0.232231;0.000000;0.261187;0.711133;0.000000;-4.733454;-6.852073;0.000000
0.272000;0.042780;0.029130;0.000000;0.220652;0.237698;0.000000;0.222696;0.655184;0.000000;-4.886506;-7.130836;0.000000
0.280000;0.044552;0.031052;0.000000;0.222276;0.242709;0.000000;0.183048;0.597109;0.000000;-5.022708;-7.383532;0.000000
0.288000;0.046336;0.033012;0.000000;0.223578;0.247247;0.000000;0.142378;0.537117;0.000000;-5.142058;-7.610161;0.000000
0.296000;0.048128;0.035006;0.000000;0.224552;0.251298;0.000000;0.100820;0.475416;0.000000;-5.244558;-7.810723;0.000000
0.304000;0.049928;0.037031;0.000000;0.225190;0.254849;0.000000;0.058510;0.412215;0.000000;-5.330207;-7.985219;0.000000
0.312000;0.051731;0.039083;0.000000;0.225486;0.257890;0.000000;0.015582;0.347722;0.000000;-5.399006;-8.133648;0.000000
0.320000;0.053535;0.041156;0.000000;0.225438;0.260410;0.000000;-0.027829;0.282146;0.000000;-5.450953;-8.256010;0.000000
0.328000;0.055337;0.043248;0.000000;0.225040;0.262402;0.000000;-0.071589;0.215695;0.000000;-5.486050;-8.352305;0.000000
0.336000;0.057134;0.045353;0.000000;0.224292;0.263859;0.000000;-0.115561;0.148578;0.000000;-5.504296;-8.422533;0.000000
0.344000;0.058924;0.047468;0.000000;0.223191;0.264778;0.000000;-0.159612;0.081004;0.000000;-5.505692;-8.466695;0.000000
0.352000;0.060704;0.049588;0.000000;0.221738;0.265155;0.000000;-0.203607;0.013181;0.000000;-5.490236;-8.484790;0.000000
0.360000;0.062471;0.051709;0.000000;0.219934;0.264989;0.000000;-0.247411;-0.054683;0.000000;-5.457930;-8.476818;0.000000
0.368000;0.064222;0.053826;0.000000;0.217780;0.264280;0.000000;-0.290889;-0.122379;0.000000;-5.408773;-8.442779;0.000000
0.376000;0.065955;0.055936;0.000000;0.215281;0.263032;0.000000;-0.333907;-0.189698;0.000000;-5.342765;-8.382674;0.000000
0.384000;0.067666;0.058034;0.000000;0.212439;0.261247;0.000000;-0.376329;-0.256432;0.000000;-5.259906;-8.296502;0.000000
0.392000;0.069353;0.060115;0.000000;0.209261;0.258931;0.000000;-0.418020;-0.322373;0.000000;-5.160197;-8.184263;0.000000
0.400000;0.071013;0.062175;0.000000;0.205753;0.256091;0.000000;-0.458847;-0.387311;0.000000;-5.043636;-8.045957;0.000000
0.408000;0.072644;0.064211;0.000000;0.201923;0.252737;0.000000;-0.498673;-0.451038;0.000000;-4.910225;-7.881584;0.000000
0.416000;0.074243;0.066217;0.000000;0.197778;0.248879;0.000000;-0.537365;-0.513347;0.000000;-4.759964;-7.691145;0.000000
0.424000;0.075808;0.068191;0.000000;0.193328;0.244528;0.000000;-0.574788;-0.574027;0.000000;-4.592851;-7.474639;0.000000
0.432000;0.077336;0.070129;0.000000;0.188585;0.239699;0.000000;-0.610806;-0.632871;0.000000;-4.408888;-7.232066;0.000000
0.440000;0.078824;0.072025;0.000000;0.183559;0.234407;0.000000;-0.645285;-0.689671;0.000000;-4.208074;-6.963426;0.000000
0.448000;0.080272;0.073878;0.000000;0.178265;0.228670;0.000000;-0.678090;-0.744217;0.000000;-3.990409;-6.668719;0.000000
0.456000;0.081676;0.075683;0.000000;0.172715;0.222507;0.000000;-0.709087;-0.796301;0.000000;-3.755893;-6.347946;0.000000
0.464000;0.083035;0.077437;0.000000;0.166924;0.215937;0.000000;-0.738140;-0.845714;0.000000;-3.504526;-6.001106;0.000000
0.472000;0.084346;0.079137;0.000000;0.160910;0.208983;0.000000;-0.765114;-0.892249;0.000000;-3.236309;-5.628199;0.000000
0.480000;0.085609;0.080780;0.000000;0.154688;0.201669;0.000000;-0.789876;-0.935696;0.000000;-2.951241;-5.229225;0.000000
0.488000;0.086821;0.082363;0.000000;0.148278;0.194020;0.000000;-0.812289;-0.975847;0.000000;-2.649322;-4.804185;0.000000
0.496000;0.087981;0.083883;0.000000;0.141698;0.186065;0.000000;-0.832220;-1.012493;0.000000;-2.330552;-4.353078;0.000000
0.504000;0.089087;0.085339;0.000000;0.134970;0.177830;0.000000;-0.849533;-1.045427;0.000000;-1.994932;-3.875904;0.000000
0.512000;0.090140;0.086728;0.000000;0.128113;0.169348;0.000000;-0.864094;-1.074438;0.000000;-1.642461;-3.372663;0.000000
0.520000;0.091137;0.088048;0.000000;0.121152;0.160650;0.000000;-0.875768;-1.099320;0.000000;-1.273139;-2.843355;0.000000
0.528000;0.092078;0.089298;0.000000;0.114109;0.151771;0.000000;-0.884419;-1.119863;0.000000;-0.886966;-2.287981;0.000000
0.536000;0.092963;0.090476;0.000000;0.107010;0.142745;0.000000;-0.889914;-1.135858;0.000000;-0.483942;-1.706540;0.000000
0.544000;0.093790;0.091581;0.000000;0.099879;0.133610;0.000000;-0.892117;-1.147098;0.000000;-0.064068;-1.099032;0.000000
0.552000;0.094561;0.092614;0.000000;0.092745;0.124404;0.000000;-0.890894;-1.153373;0.000000;0.372657;-0.465457;0.000000
0.560000;0.095274;0.093572;0.000000;0.085634;0.115170;0.000000;-0.886110;-1.154475;0.000000;0.826233;0.194184;0.000000
0.568000;0.095931;0.094456;0.000000;0.078577;0.105947;0.000000;-0.877630;-1.150197;0.000000;1.296660;0.879893;0.000000
0.576000;0.096532;0.095267;0.000000;0.071603;0.096781;0.000000;-0.865318;-1.140328;0.000000;1.783937;1.591668;0.000000
0.584000;0.097077;0.096005;0.000000;0.064742;0.087717;0.000000;-0.849042;-1.124660;0.000000;2.288065;2.329510;0.000000
0.592000;0.097568;0.096671;0.000000;0.058029;0.078803;0.000000;-0.828664;-1.102986;0.000000;2.809044;3.093418;0.000000
0.600000;0.098006;0.097266;0.000000;0.051495;0.070086;0.000000;-0.804052;-1.075096;0.000000;3.346874;3.883394;0.000000
0.608000;0.098392;0.097793;0.000000;0.045176;0.061618;0.000000;-0.775070;-1.040782;0.000000;3.901555;4.699436;0.000000
0.616000;0.098729;0.098253;0.000000;0.039106;0.053451;0.000000;-0.741582;-0.999836;0.000000;4.473086;5.541545;0.000000
0.624000;0.099019;0.098649;0.000000;0.033323;0.045639;0.000000;-0.703455;-0.952048;0.000000;5.061469;6.409721;0.000000
0.632000;0.099263;0.098984;0.000000;0.027863;0.038237;0.000000;-0.660554;-0.897211;0.000000;5.666702;7.303963;0.000000
0.640000;0.099466;0.099262;0.000000;0.022767;0.031303;0.000000;-0.612743;-0.835115;0.000000;6.288785;8.224273;0.000000
0.648000;0.099629;0.099487;0.000000;0.018073;0.024896;0.000000;-0.559888;-0.765553;0.000000;6.927720;9.170649;0.000000
0.656000;0.099756;0.099662;0.000000;0.013822;0.019075;0.000000;-0.501855;-0.688315;0.000000;7.583505;10.143092;0.000000
0.664000;0.099851;0.099794;0.000000;0.010057;0.013903;0.000000;-0.438507;-0.603194;0.000000;8.256141;11.141602;0.000000
0.672000;0.099918;0.099887;0.000000;0.006821;0.009445;0.000000;-0.369711;-0.509980;0.000000;8.945628;12.166178;0.000000
0.680000;0.099962;0.099947;0.000000;0.004157;0.005766;0.000000;-0.295332;-0.408465;0.000000;9.651966;13.216821;0.000000
0.688000;0.099986;0.099981;0.000000;0.002111;0.002933;0.000000;-0.215235;-0.298441;0.000000;10.375154;14.293531;0.000000
0.696000;0.099997;0.099996;0.000000;0.000729;0.001014;0.000000;-0.129285;-0.179699;0.000000;11.115194;15.396308;0.000000
0.704000;0.100000;0.100000;0.000000;0.000058;0.000081;0.000000;-0.037347;-0.052031;0.000000;11.872084;16.525152;0.000000
0.712000;0.100000;0.100000;0.000000;0.000058;0.000081;0.000000;0.000000;0.000000;0.000000;2.999475;-0.000730;0.000000
0.720000;0.100001;0.100001;0.000000;0.000153;0.000081;0.000000;0.023709;-0.000006;0.000000;2.927774;-0.000714;0.000000
0.728000;0.100003;0.100001;0.000000;0.000436;0.000081;0.000000;0.046846;-0.000011;0.000000;2.856649;-0.000699;0.000000
0.736000;0.100008;0.100002;0.000000;0.000901;0.000081;0.000000;0.069417;-0.000017;0.000000;2.786100;-0.000684;0.000000
0.744000;0.100018;0.100003;0.000000;0.001545;0.000081;0.000000;0.091425;-0.000022;0.000000;2.716127;-0.000669;0.000000
0.752000;0.100033;0.100003;0.000000;0.002363;0.000081;0.000000;0.112876;-0.000028;0.000000;2.646730;-0.000654;0.000000
0.760000;0.100056;0.100004;0.000000;0.003350;0.000080;0.000000;0.133774;-0.000033;0.000000;2.577909;-0.000639;0.000000
0.768000;0.100087;0.100004;0.000000;0.004502;0.000080;0.000000;0.154124;-0.000038;0.000000;2.509663;-0.000624;0.000000
0.776000;0.100129;0.100005;0.000000;0.005814;0.000080;0.000000;0.173930;-0.000043;0.000000;2.441994;-0.000609;0.000000
0.784000;0.100181;0.100006;0.000000;0.007283;0.000079;0.000000;0.193198;-0.000048;0.000000;2.374900;-0.000595;0.000000
0.792000;0.100245;0.100006;0.000000;0.008904;0.000079;0.000000;0.211930;-0.000052;0.000000;2.308383;-0.000580;0.000000
0.800000;0.100324;0.100007;0.000000;0.010673;0.000079;0.000000;0.230133;-0.000057;0.000000;2.242441;-0.000566;0.000000
0.808000;0.100417;0.100008;0.000000;0.012585;0.000078;0.000000;0.247811;-0.000061;0.000000;2.177075;-0.000552;0.000000
0.816000;0.100525;0.100008;0.000000;0.014636;0.000078;0.000000;0.264968;-0.000066;0.000000;2.112286;-0.000537;0.000000
0.824000;0.100651;0.100009;0.000000;0.016823;0.000077;0.000000;0.281609;-0.000070;0.000000;2.048072;-0.000523;0.000000
0.832000;0.100795;0.100009;0.000000;0.019141;0.000076;0.000000;0.297739;-0.000074;0.000000;1.984434;-0.000510;0.000000
0.840000;0.100958;0.100010;0.000000;0.021585;0.000076;0.000000;0.313362;-0.000078;0.000000;1.921372;-0.000496;0.000000
0.848000;0.101141;0.100011;0.000000;0.024153;0.000075;0.000000;0.328482;-0.000082;0.000000;1.858885;-0.000482;0.000000
0.856000;0.101344;0.100011;0.000000;0.026840;0.000075;0.000000;0.343105;-0.000086;0.000000;1.796975;-0.000469;0.000000
0.864000;0.101570;0.100012;0.000000;0.029641;0.000074;0.000000;0.357235;-0.000090;0.000000;1.735641;-0.000455;0.000000
0.872000;0.101819;0.100012;0.000000;0.032554;0.000073;0.000000;0.370877;-0.000093;0.000000;1.674882;-0.000442;0.000000
0.880000;0.102091;0.100013;0.000000;0.035574;0.000072;0.000000;0.384035;-0.000097;0.000000;1.614700;-0.000429;0.000000
0.888000;0.102389;0.100014;0.000000;0.038697;0.000072;0.000000;0.396714;-0.000100;0.000000;1.555093;-0.000416;0.000000
0.896000;0.102711;0.100014;0.000000;0.041920;0.000071;0.000000;0.408918;-0.000103;0.000000;1.496063;-0.000403;0.000000
0.904000;0.103059;0.100015;0.000000;0.045239;0.000070;0.000000;0.420652;-0.000106;0.000000;1.437608;-0.000390;0.000000
0.912000;0.103435;0.100015;0.000000;0.048650;0.000069;0.000000;0.431921;-0.000110;0.000000;1.379729;-0.000377;0.000000
0.920000;0.103838;0.100016;0.000000;0.052148;0.000068;0.000000;0.442729;-0.000112;0.000000;1.322426;-0.000365;0.000000
0.928000;0.104270;0.100016;0.000000;0.055732;0.000067;0.000000;0.453082;-0.000115;0.000000;1.265699;-0.000352;0.000000
0.936000;0.104730;0.100017;0.000000;0.059397;0.000066;0.000000;0.462982;-0.000118;0.000000;1.209548;-0.000340;0.000000
0.944000;0.105220;0.100017;0.000000;0.063139;0.000065;0.000000;0.472436;-0.000121;0.000000;1.153973;-0.000328;0.000000
0.952000;0.105740;0.100018;0.000000;0.066954;0.000064;0.000000;0.481447;-0.000123;0.000000;1.098973;-0.000315;0.000000
0.960000;0.106292;0.100018;0.000000;0.070841;0.000063;0.000000;0.490021;-0.000126;0.000000;1.044550;-0.000303;0.000000
0.968000;0.106874;0.100019;0.000000;0.074794;0.000062;0.000000;0.498162;-0.000128;0.000000;0.990703;-0.000292;0.000000
0.976000;0.107488;0.100019;0.000000;0.078810;0.000061;0.000000;0.505874;-0.000130;0.000000;0.937431;-0.000280;0.000000
0.984000;0.108135;0.100020;0.000000;0.082886;0.000060;0.000000;0.513162;-0.000133;0.000000;0.884736;-0.000268;0.000000
0.992000;0.108815;0.100020;0.000000;0.087019;0.000059;0.000000;0.520031;-0.000135;0.000000;0.832616;-0.000257;0.000000
1.000000;0.109528;0.100021;0.000000;0.091206;0.000058;0.000000;0.526485;-0.000137;0.000000;0.781072;-0.000245;0.000000
1.008000;0.110274;0.100021;0.000000;0.095442;0.000057;0.000000;0.532530;-0.000139;0.000000;0.730104;-0.000234;0.000000
1.016000;0.111055;0.100022;0.000000;0.099725;0.000056;0.000000;0.538169;-0.000141;0.000000;0.679712;-0.000223;0.000000
1.024000;0.111870;0.100022;0.000000;0.104052;0.000055;0.000000;0.543407;-0.000142;0.000000;0.629896;-0.000212;0.000000
1.032000;0.112720;0.100023;0.000000;0.108419;0.000054;0.000000;0.548249;-0.000144;0.000000;0.580656;-0.000201;0.000000
1.040000;0.113605;0.100023;0.000000;0.112823;0.000052;0.000000;0.552699;-0.000145;0.000000;0.531992;-0.000190;0.000000
1.048000;0.114525;0.100024;0.000000;0.117261;0.000051;0.000000;0.556762;-0.000147;0.000000;0.483904;-0.000179;0.000000
1.056000;0.115481;0.100024;0.000000;0.121730;0.000050;0.000000;0.560443;-0.000148;0.000000;0.436391;-0.000168;0.000000
1.064000;0.116473;0.100024;0.000000;0.126227;0.000049;0.000000;0.563746;-0.000150;0.000000;0.389455;-0.000158;0.000000
1.072000;0.117501;0.100025;0.000000;0.130749;0.000048;0.000000;0.566676;-0.000151;0.000000;0.343094;-0.000148;0.000000
1.080000;0.118565;0.100025;0.000000;0.135293;0.000047;0.000000;0.569237;-0.000152;0.000000;0.297310;-0.000137;0.000000
1.088000;0.119665;0.100025;0.000000;0.139856;0.000045;0.000000;0.571434;-0.000153;0.000000;0.252101;-0.000127;0.000000
1.096000;0.120803;0.100026;0.000000;0.144435;0.000044;0.000000;0.573272;-0.000154;0.000000;0.207468;-0.000117;0.000000
1.104000;0.121976;0.100026;0.000000;0.149027;0.000043;0.000000;0.574755;-0.000155;0.000000;0.163411;-0.000107;0.000000
1.112000;0.123187;0.100027;0.000000;0.153630;0.000042;0.000000;0.575888;-0.000156;0.000000;0.119930;-0.000097;0.000000
1.120000;0.124434;0.100027;0.000000;0.158240;0.000040;0.000000;0.576675;-0.000156;0.000000;0.077025;-0.000088;0.000000
1.128000;0.125719;0.100027;0.000000;0.162856;0.000039;0.000000;0.577122;-0.000157;0.000000;0.034696;-0.000078;0.000000
1.136000;0.127040;0.100027;0.000000;0.167473;0.000038;0.000000;0.577232;-0.000158;0.000000;-0.007057;-0.000069;0.000000
1.144000;0.128398;0.100028;0.000000;0.172091;0.000037;0.000000;0.577011;-0.000158;0.000000;-0.048234;-0.000059;0.000000
1.152000;0.129794;0.100028;0.000000;0.176705;0.000035;0.000000;0.576462;-0.000159;0.000000;-0.088836;-0.000050;0.000000
1.160000;0.131226;0.100028;0.000000;0.181313;0.000034;0.000000;0.575591;-0.000159;0.000000;-0.128861;-0.000041;0.000000
1.168000;0.132695;0.100029;0.000000;0.185913;0.000033;0.000000;0.574402;-0.000159;0.000000;-0.168311;-0.000032;0.000000
1.176000;0.134200;0.100029;0.000000;0.190503;0.000031;0.000000;0.572899;-0.000160;0.000000;-0.207184;-0.000023;0.000000
1.184000;0.135743;0.100029;0.000000;0.195079;0.000030;0.000000;0.571088;-0.000160;0.000000;-0.245482;-0.000015;0.000000
1.192000;0.137322;0.100029;0.000000;0.199639;0.000029;0.000000;0.568973;-0.000160;0.000000;-0.283204;-0.000006;0.000000
1.200000;0.138937;0.100030;0.000000;0.204182;0.000028;0.000000;0.566559;-0.000160;0.000000;-0.320350;0.000003;0.000000
1.208000;0.140588;0.100030;0.000000;0.208703;0.000026;0.000000;0.563849;-0.000160;0.000000;-0.356920;0.000011;0.000000
1.216000;0.142276;0.100030;0.000000;0.213202;0.000025;0.000000;0.560849;-0.000160;0.000000;-0.392914;0.000019;0.000000
1.224000;0.144000;0.100030;0.000000;0.217676;0.000024;0.000000;0.557564;-0.000159;0.000000;-0.428332;0.000027;0.000000
1.232000;0.145759;0.100030;0.000000;0.222123;0.000023;0.000000;0.553998;-0.000159;0.000000;-0.463174;0.000035;0.000000
1.240000;0.147553;0.100031;0.000000;0.226539;0.000021;0.000000;0.550155;-0.000159;0.000000;-0.497440;0.000043;0.000000
1.248000;0.149383;0.100031;0.000000;0.230924;0.000020;0.000000;0.546040;-0.000159;0.000000;-0.531131;0.000051;0.000000
1.256000;0.151248;0.100031;0.000000;0.235275;0.000019;0.000000;0.541658;-0.000158;0.000000;-0.564245;0.000059;0.000000
1.264000;0.153148;0.100031;0.000000;0.239590;0.000017;0.000000;0.537014;-0.000158;0.000000;-0.596784;0.000066;0.000000
1.272000;0.155081;0.100031;0.000000;0.243867;0.000016;0.000000;0.532111;-0.000157;0.000000;-0.628746;0.000074;0.000000
1.280000;0.157049;0.100031;0.000000;0.248103;0.000015;0.000000;0.526955;-0.000156;0.000000;-0.660133;0.000081;0.000000
1.288000;0.159051;0.100031;0.000000;0.252298;0.000014;0.000000;0.521551;-0.000156;0.000000;-0.690944;0.000088;0.000000
1.296000;0.161086;0.100031;0.000000;0.256448;0.000012;0.000000;0.515902;-0.000155;0.000000;-0.721179;0.000096;0.000000
1.304000;0.163154;0.100032;0.000000;0.260551;0.000011;0.000000;0.510013;-0.000154;0.000000;-0.750838;0.000103;0.000000
1.312000;0.165255;0.100032;0.000000;0.264607;0.000010;0.000000;0.503890;-0.000153;0.000000;-0.779921;0.000109;0.000000
1.320000;0.167388;0.100032;0.000000;0.268613;0.000009;0.000000;0.497536;-0.000152;0.000000;-0.808428;0.000116;0.000000
1.328000;0.169552;0.100032;0.000000;0.272567;0.000008;0.000000;0.490957;-0.000151;0.000000;-0.836359;0.000123;0.000000
1.336000;0.171749;0.100032;0.000000;0.276468;0.000006;0.000000;0.484156;-0.000150;0.000000;-0.863714;0.000129;0.000000
1.344000;0.173976;0.100032;0.000000;0.280313;0.000005;0.000000;0.477139;-0.000149;0.000000;-0.890494;0.000136;0.000000
1.352000;0.176233;0.100032;0.000000;0.284101;0.000004;0.000000;0.469910;-0.000148;0.000000;-0.916697;0.000142;0.000000
1.360000;0.178521;0.100032;0.000000;0.287831;0.000003;0.000000;0.462473;-0.000147;0.000000;-0.942325;0.000148;0.000000
1.368000;0.180839;0.100032;0.000000;0.291500;0.000002;0.000000;0.454834;-0.000146;0.000000;-0.967377;0.000154;0.000000
1.376000;0.183185;0.100032;0.000000;0.295108;0.000000;0.000000;0.446997;-0.000145;0.000000;-0.991852;0.000160;0.000000
1.384000;0.185560;0.100032;0.000000;0.298652;-0.000001;0.000000;0.438966;-0.000143;0.000000;-1.015752;0.000166;0.000000
1.392000;0.187963;0.100032;0.000000;0.302131;-0.000002;0.000000;0.430746;-0.000142;0.000000;-1.039076;0.000172;0.000000
1.400000;0.190394;0.100032;0.000000;0.305543;-0.000003;0.000000;0.422342;-0.000141;0.000000;-1.061824;0.000177;0.000000
1.408000;0.192852;0.100032;0.000000;0.308888;-0.000004;0.000000;0.413758;-0.000139;0.000000;-1.083996;0.000183;0.000000
1.416000;0.195336;0.100032;0.000000;0.312163;-0.000005;0.000000;0.405000;-0.000138;0.000000;-1.105592;0.000188;0.000000
1.424000;0.197846;0.100032;0.000000;0.315367;-0.000006;0.000000;0.396070;-0.000136;0.000000;-1.126612;0.000193;0.000000
1.432000;0.200382;0.100032;0.000000;0.318500;-0.000007;0.000000;0.386975;-0.000135;0.000000;-1.147057;0.000198;0.000000
1.440000;0.202942;0.100032;0.000000;0.321558;-0.000008;0.000000;0.377719;-0.000133;0.000000;-1.166925;0.000203;0.000000
1.448000;0.205526;0.100032;0.000000;0.324543;-0.000010;0.000000;0.368306;-0.000131;0.000000;-1.186218;0.000208;0.000000
1.456000;0.208134;0.100032;0.000000;0.327451;-0.000011;0.000000;0.358741;-0.000130;0.000000;-1.204934;0.000213;0.000000
1.464000;0.210765;0.100032;0.000000;0.330282;-0.000012;0.000000;0.349029;-0.000128;0.000000;-1.223075;0.000218;0.000000
1.472000;0.213419;0.100031;0.000000;0.333035;-0.000013;0.000000;0.339174;-0.000126;0.000000;-1.240640;0.000222;0.000000
1.480000;0.216094;0.100031;0.000000;0.335709;-0.000014;0.000000;0.329180;-0.000124;0.000000;-1.257628;0.000227;0.000000
1.488000;0.218790;0.100031;0.000000;0.338302;-0.000015;0.000000;0.319053;-0.000123;0.000000;-1.274041;0.000231;0.000000
1.496000;0.221506;0.100031;0.000000;0.340813;-0.000016;0.000000;0.308797;-0.000121;0.000000;-1.289878;0.000235;0.000000
1.504000;0.224243;0.100031;0.000000;0.343242;-0.000017;0.000000;0.298416;-0.000119;0.000000;-1.305139;0.000239;0.000000
1.512000;0.226998;0.100031;0.000000;0.345587;-0.000017;0.000000;0.287916;-0.000117;0.000000;-1.319825;0.000243;0.000000
1.520000;0.229772;0.100031;0.000000;0.347848;-0.000018;0.000000;0.277301;-0.000115;0.000000;-1.333934;0.000247;0.000000
1.528000;0.232563;0.100031;0.000000;0.350024;-0.000019;0.000000;0.266575;-0.000113;0.000000;-1.347467;0.000251;0.000000
1.536000;0.235372;0.100030;0.000000;0.352113;-0.000020;0.000000;0.255743;-0.000111;0.000000;-1.360425;0.000254;0.000000
1.544000;0.238197;0.100030;0.000000;0.354116;-0.000021;0.000000;0.244810;-0.000109;0.000000;-1.372806;0.000258;0.000000
1.552000;0.241038;0.100030;0.000000;0.356030;-0.000022;0.000000;0.233780;-0.000107;0.000000;-1.384612;0.000261;0.000000
1.560000;0.243893;0.100030;0.000000;0.357856;-0.000023;0.000000;0.222657;-0.000105;0.000000;-1.395841;0.000265;0.000000
1.568000;0.246763;0.100030;0.000000;0.359592;-0.000024;0.000000;0.211448;-0.000103;0.000000;-1.406495;0.000268;0.000000
1.576000;0.249646;0.100029;0.000000;0.361239;-0.000024;0.000000;0.200155;-0.000100;0.000000;-1.416573;0.000271;0.000000
1.584000;0.252543;0.100029;0.000000;0.362794;-0.000025;0.000000;0.188784;-0.000098;0.000000;-1.426075;0.000274;0.000000
1.592000;0.255451;0.100029;0.000000;0.364259;-0.000026;0.000000;0.177339;-0.000096;0.000000;-1.435001;0.000276;0.000000
1.600000;0.258371;0.100029;0.000000;0.365632;-0.000027;0.000000;0.165825;-0.000094;0.000000;-1.443351;0.000279;0.000000
1.608000;0.261301;0.100029;0.000000;0.366912;-0.000027;0.000000;0.154247;-0.000092;0.000000;-1.451125;0.000282;0.000000
1.616000;0.264241;0.100028;0.000000;0.368100;-0.000028;0.000000;0.142609;-0.000089;0.000000;-1.458323;0.000284;0.000000
1.624000;0.267190;0.100028;0.000000;0.369194;-0.000029;0.000000;0.130916;-0.000087;0.000000;-1.464946;0.000286;0.000000
1.632000;0.270148;0.100028;0.000000;0.370194;-0.000030;0.000000;0.119171;-0.000085;0.000000;-1.470992;0.000289;0.000000
1.640000;0.273113;0.100028;0.000000;0.371100;-0.000030;0.000000;0.107381;-0.000082;0.000000;-1.476463;0.000291;0.000000
1.648000;0.276085;0.100027;0.000000;0.371912;-0.000031;0.000000;0.095550;-0.000080;0.000000;-1.481357;0.000293;0.000000
1.656000;0.279063;0.100027;0.000000;0.372629;-0.000032;0.000000;0.083681;-0.000078;0.000000;-1.485676;0.000294;0.000000
1.664000;0.282047;0.100027;0.000000;0.373251;-0.000032;0.000000;0.071780;-0.000075;0.000000;-1.489419;0.000296;0.000000
1.672000;0.285035;0.100027;0.000000;0.373777;-0.000033;0.000000;0.059852;-0.000073;0.000000;-1.492586;0.000298;0.000000
1.680000;0.288027;0.100026;0.000000;0.374208;-0.000033;0.000000;0.047900;-0.000071;0.000000;-1.495177;0.000299;0.000000
1.688000;0.291022;0.100026;0.000000;0.374544;-0.000034;0.000000;0.035931;-0.000068;0.000000;-1.497192;0.000301;0.000000
1.696000;0.294020;0.100026;0.000000;0.374783;-0.000034;0.000000;0.023947;-0.000066;0.000000;-1.498631;0.000302;0.000000
1.704000;0.297018;0.100026;0.000000;0.374927;-0.000035;0.000000;0.011954;-0.000063;0.000000;-1.499494;0.000303;0.000000
1.712000;0.300018;0.100025;0.000000;0.374975;-0.000035;0.000000;-0.000043;-0.000061;0.000000;-1.499781;0.000304;0.000000
1.720000;0.303018;0.100025;0.000000;0.374926;-0.000036;0.000000;-0.012041;-0.000058;0.000000;-1.499492;0.000305;0.000000
1.728000;0.306017;0.100025;0.000000;0.374782;-0.000036;0.000000;-0.024034;-0.000056;0.000000;-1.498628;0.000306;0.000000
1.736000;0.309014;0.100024;0.000000;0.374542;-0.000037;0.000000;-0.036017;-0.000054;0.000000;-1.497187;0.000307;0.000000
1.744000;0.312009;0.100024;0.000000;0.374206;-0.000037;0.000000;-0.047987;-0.000051;0.000000;-1.495171;0.000307;0.000000
1.752000;0.315001;0.100024;0.000000;0.373774;-0.000038;0.000000;-0.059939;-0.000049;0.000000;-1.492579;0.000308;0.000000
1.760000;0.317989;0.100024;0.000000;0.373247;-0.000038;0.000000;-0.071867;-0.000046;0.000000;-1.489410;0.000308;0.000000
1.768000;0.320973;0.100023;0.000000;0.372624;-0.000038;0.000000;-0.083768;-0.000044;0.000000;-1.485666;0.000308;0.000000
1.776000;0.323951;0.100023;0.000000;0.371906;-0.000039;0.000000;-0.095636;-0.000041;0.000000;-1.481346;0.000308;0.000000
1.784000;0.326923;0.100023;0.000000;0.371094;-0.000039;0.000000;-0.107468;-0.000039;0.000000;-1.476450;0.000308;0.000000
1.792000;0.329888;0.100022;0.000000;0.370187;-0.000039;0.000000;-0.119258;-0.000036;0.000000;-1.470978;0.000308;0.000000
1.800000;0.332846;0.100022;0.000000;0.369186;-0.000040;0.000000;-0.131002;-0.000034;0.000000;-1.464931;0.000308;0.000000
1.808000;0.335795;0.100022;0.000000;0.368091;-0.000040;0.000000;-0.142695;-0.000031;0.000000;-1.458307;0.000307;0.000000
1.816000;0.338735;0.100021;0.000000;0.366903;-0.000040;0.000000;-0.154333;-0.000029;0.000000;-1.451107;0.000307;0.000000
1.824000;0.341665;0.100021;0.000000;0.365622;-0.000040;0.000000;-0.165911;-0.000026;0.000000;-1.443332;0.000306;0.000000
1.832000;0.344585;0.100021;0.000000;0.364249;-0.000041;0.000000;-0.177425;-0.000024;0.000000;-1.434980;0.000306;0.000000
1.840000;0.347493;0.100020;0.000000;0.362783;-0.000041;0.000000;-0.188869;-0.000022;0.000000;-1.426053;0.000305;0.000000
1.848000;0.350389;0.100020;0.000000;0.361227;-0.000041;0.000000;-0.200240;-0.000019;0.000000;-1.416550;0.000304;0.000000
1.856000;0.353272;0.100020;0.000000;0.359580;-0.000041;0.000000;-0.211533;-0.000017;0.000000;-1.406470;0.000303;0.000000
1.864000;0.356142;0.100019;0.000000;0.357843;-0.000041;0.000000;-0.222742;-0.000014;0.000000;-1.395815;0.000302;0.000000
1.872000;0.358997;0.100019;0.000000;0.356016;-0.000041;0.000000;-0.233864;-0.000012;0.000000;-1.384584;0.000300;0.000000
1.880000;0.361838;0.100019;0.000000;0.354101;-0.000041;0.000000;-0.244894;-0.000010;0.000000;-1.372777;0.000299;0.000000
1.888000;0.364663;0.100018;0.000000;0.352098;-0.000041;0.000000;-0.255827;-0.000007;0.000000;-1.360394;0.000297;0.000000
1.896000;0.367471;0.100018;0.000000;0.350008;-0.000041;0.000000;-0.266659;-0.000005;0.000000;-1.347436;0.000296;0.000000
1.904000;0.370263;0.100018;0.000000;0.347832;-0.000041;0.000000;-0.277385;-0.000002;0.000000;-1.333901;0.000294;0.000000
1.912000;0.373036;0.100017;0.000000;0.345570;-0.000041;0.000000;-0.288000;-0.000000;0.000000;-1.319790;0.000292;0.000000
1.920000;0.375792;0.100017;0.000000;0.343224;-0.000041;0.000000;-0.298500;0.000002;0.000000;-1.305104;0.000290;0.000000
1.928000;0.378528;0.100017;0.000000;0.340795;-0.000041;0.000000;-0.308880;0.000005;0.000000;-1.289841;0.000288;0.000000
1.936000;0.381244;0.100016;0.000000;0.338282;-0.000041;0.000000;-0.319136;0.000007;0.000000;-1.274003;0.000286;0.000000
1.944000;0.383940;0.100016;0.000000;0.335689;-0.000041;0.000000;-0.329262;0.000009;0.000000;-1.257589;0.000283;0.000000
1.952000;0.386615;0.100016;0.000000;0.333015;-0.000041;0.000000;-0.339255;0.000011;0.000000;-1.240598;0.000281;0.000000
1.960000;0.389268;0.100015;0.000000;0.330261;-0.000041;0.000000;-0.349110;0.000014;0.000000;-1.223032;0.000278;0.000000
1.968000;0.391899;0.100015;0.000000;0.327429;-0.000041;0.000000;-0.358822;0.000016;0.000000;-1.204890;0.000276;0.000000
1.976000;0.394507;0.100015;0.000000;0.324520;-0.000041;0.000000;-0.368387;0.000018;0.000000;-1.186172;0.000273;0.000000
1.984000;0.397091;0.100014;0.000000;0.321535;-0.000041;0.000000;-0.377800;0.000020;0.000000;-1.166878;0.000270;0.000000
1.992000;0.399651;0.100014;0.000000;0.318476;-0.000041;0.000000;-0.387056;0.000022;0.000000;-1.147009;0.000267;0.000000
2.000000;0.402186;0.100014;0.000000;0.315343;-0.000040;0.000000;-0.396150;0.000024;0.000000;-1.126563;0.000264;0.000000
2.008000;0.404696;0.100013;0.000000;0.312138;-0.000040;0.000000;-0.405079;0.000027;0.000000;-1.105541;0.000260;0.000000
2.016000;0.407181;0.100013;0.000000;0.308862;-0.000040;0.000000;-0.413837;0.000029;0.000000;-1.083944;0.000257;0.000000
2.024000;0.409638;0.100013;0.000000;0.305517;-0.000040;0.000000;-0.422421;0.000031;0.000000;-1.061770;0.000253;0.000000
2.032000;0.412069;0.100013;0.000000;0.302104;-0.000039;0.000000;-0.430824;0.000033;0.000000;-1.039021;0.000250;0.000000
2.040000;0.414472;0.100012;0.000000;0.298624;-0.000039;0.000000;-0.439043;0.000035;0.000000;-1.015696;0.000246;0.000000
2.048000;0.416846;0.100012;0.000000;0.295080;-0.000039;0.000000;-0.447074;0.000037;0.000000;-0.991794;0.000242;0.000000
2.056000;0.419193;0.100012;0.000000;0.291472;-0.000039;0.000000;-0.454911;0.000039;0.000000;-0.967317;0.000238;0.000000
2.064000;0.421510;0.100011;0.000000;0.287802;-0.000038;0.000000;-0.462549;0.000040;0.000000;-0.942264;0.000234;0.000000
2.072000;0.423797;0.100011;0.000000;0.284071;-0.000038;0.000000;-0.469985;0.000042;0.000000;-0.916635;0.000230;0.000000
2.080000;0.426055;0.100011;0.000000;0.280282;-0.000038;0.000000;-0.477214;0.000044;0.000000;-0.890431;0.000225;0.000000
2.088000;0.428282;0.100010;0.000000;0.276437;-0.000037;0.000000;-0.484231;0.000046;0.000000;-0.863650;0.000221;0.000000
2.096000;0.430478;0.100010;0.000000;0.272535;-0.000037;0.000000;-0.491031;0.000048;0.000000;-0.836293;0.000216;0.000000
2.104000;0.432642;0.100010;0.000000;0.268581;-0.000037;0.000000;-0.497610;0.000049;0.000000;-0.808360;0.000212;0.000000
2.112000;0.434775;0.100009;0.000000;0.264574;-0.000036;0.000000;-0.503963;0.000051;0.000000;-0.779852;0.000207;0.000000
2.120000;0.436875;0.100009;0.000000;0.260518;-0.000036;0.000000;-0.510086;0.000053;0.000000;-0.750768;0.000202;0.000000
2.128000;0.438943;0.100009;0.000000;0.256413;-0.000035;0.000000;-0.515974;0.000054;0.000000;-0.721107;0.000197;0.000000
2.136000;0.440978;0.100009;0.000000;0.252263;-0.000035;0.000000;-0.521622;0.000056;0.000000;-0.690871;0.000192;0.000000
2.144000;0.442979;0.100008;0.000000;0.248068;-0.000034;0.000000;-0.527026;0.000057;0.000000;-0.660059;0.000186;0.000000
2.152000;0.444947;0.100008;0.000000;0.243831;-0.000034;0.000000;-0.532182;0.000059;0.000000;-0.628671;0.000181;0.000000
2.160000;0.446880;0.100008;0.000000;0.239554;-0.000033;0.000000;-0.537083;0.000060;0.000000;-0.596707;0.000176;0.000000
2.168000;0.448779;0.100008;0.000000;0.235238;-0.000033;0.000000;-0.541727;0.000062;0.000000;-0.564167;0.000170;0.000000
2.176000;0.450644;0.100007;0.000000;0.230887;-0.000032;0.000000;-0.546109;0.000063;0.000000;-0.531051;0.000164;0.000000
2.184000;0.452473;0.100007;0.000000;0.226501;-0.000032;0.000000;-0.550223;0.000064;0.000000;-0.497359;0.000158;0.000000
2.192000;0.454268;0.100007;0.000000;0.222084;-0.000031;0.000000;-0.554065;0.000065;0.000000;-0.463091;0.000152;0.000000
2.200000;0.456027;0.100007;0.000000;0.217637;-0.000031;0.000000;-0.557630;0.000067;0.000000;-0.428248;0.000146;0.000000
2.208000;0.457750;0.100006;0.000000;0.213163;-0.000030;0.000000;-0.560915;0.000068;0.000000;-0.392828;0.000140;0.000000
2.216000;0.459437;0.100006;0.000000;0.208663;-0.000030;0.000000;-0.563914;0.000069;0.000000;-0.356833;0.000134;0.000000
2.224000;0.461089;0.100006;0.000000;0.204141;-0.000029;0.000000;-0.566623;0.000070;0.000000;-0.320262;0.000127;0.000000
2.232000;0.462703;0.100006;0.000000;0.199598;-0.000029;0.000000;-0.569037;0.000071;0.000000;-0.283114;0.000121;0.000000
2.240000;0.464282;0.100005;0.000000;0.195037;-0.000028;0.000000;-0.571151;0.000072;0.000000;-0.245391;0.000114;0.000000
2.248000;0.465824;0.100005;0.000000;0.190460;-0.000028;0.000000;-0.572962;0.000073;0.000000;-0.207092;0.000107;0.000000
2.256000;0.467329;0.100005;0.000000;0.185871;-0.000027;0.000000;-0.574463;0.000074;0.000000;-0.168217;0.000100;0.000000
2.264000;0.468798;0.100005;0.000000;0.181270;-0.000026;0.000000;-0.575652;0.000074;0.000000;-0.128766;0.000093;0.000000
2.272000;0.470230;0.100004;0.000000;0.176661;-0.000026;0.000000;-0.576522;0.000075;0.000000;-0.088739;0.000086;0.000000
2.280000;0.471625;0.100004;0.000000;0.172046;-0.000025;0.000000;-0.577070;0.000076;0.000000;-0.048137;0.000079;0.000000
2.288000;0.472982;0.100004;0.000000;0.167429;-0.000025;0.000000;-0.577291;0.000076;0.000000;-0.006958;0.000072;0.000000
2.296000;0.474303;0.100004;0.000000;0.162811;-0.000024;0.000000;-0.577180;0.000077;0.000000;0.034797;0.000064;0.000000
2.304000;0.475587;0.100004;0.000000;0.158195;-0.000023;0.000000;-0.576732;0.000077;0.000000;0.077127;0.000056;0.000000
2.312000;0.476834;0.100004;0.000000;0.153584;-0.000023;0.000000;-0.575944;0.000078;0.000000;0.120034;0.000049;0.000000
2.320000;0.478045;0.100003;0.000000;0.148981;-0.000022;0.000000;-0.574810;0.000078;0.000000;0.163516;0.000041;0.000000
2.328000;0.479218;0.100003;0.000000;0.144388;-0.000021;0.000000;-0.573326;0.000078;0.000000;0.207574;0.000033;0.000000
2.336000;0.480355;0.100003;0.000000;0.139808;-0.000021;0.000000;-0.571487;0.000079;0.000000;0.252208;0.000025;0.000000
2.344000;0.481455;0.100003;0.000000;0.135245;-0.000020;0.000000;-0.569289;0.000079;0.000000;0.297418;0.000017;0.000000
2.352000;0.482519;0.100003;0.000000;0.130701;-0.000020;0.000000;-0.566727;0.000079;0.000000;0.343204;0.000008;0.000000
2.360000;0.483546;0.100003;0.000000;0.126178;-0.000019;0.000000;-0.563797;0.000079;0.000000;0.389566;-0.000000;0.000000
2.368000;0.484538;0.100002;0.000000;0.121681;-0.000018;0.000000;-0.560493;0.000079;0.000000;0.436504;-0.000009;0.000000
2.376000;0.485493;0.100002;0.000000;0.117211;-0.000018;0.000000;-0.556811;0.000079;0.000000;0.484018;-0.000017;0.000000
2.384000;0.486413;0.100002;0.000000;0.112773;-0.000017;0.000000;-0.552747;0.000079;0.000000;0.532108;-0.000026;0.000000
2.392000;0.487298;0.100002;0.000000;0.108369;-0.000016;0.000000;-0.548296;0.000078;0.000000;0.580773;-0.000035;0.000000
2.400000;0.488147;0.100002;0.000000;0.104001;-0.000016;0.000000;-0.543453;0.000078;0.000000;0.630015;-0.000044;0.000000
2.408000;0.488962;0.100002;0.000000;0.099674;-0.000015;0.000000;-0.538214;0.000078;0.000000;0.679832;-0.000053;0.000000
2.416000;0.489742;0.100002;0.000000;0.095391;-0.000015;0.000000;-0.532574;0.000077;0.000000;0.730225;-0.000062;0.000000
2.424000;0.490488;0.100001;0.000000;0.091154;-0.000014;0.000000;-0.526529;0.000077;0.000000;0.781195;-0.000072;0.000000
2.432000;0.491201;0.100001;0.000000;0.086968;-0.000013;0.000000;-0.520073;0.000076;0.000000;0.832740;-0.000081;0.000000
2.440000;0.491880;0.100001;0.000000;0.082834;-0.000013;0.000000;-0.513203;0.000075;0.000000;0.884861;-0.000091;0.000000
2.448000;0.492526;0.100001;0.000000;0.078757;-0.000012;0.000000;-0.505914;0.000075;0.000000;0.937558;-0.000100;0.000000
2.456000;0.493140;0.100001;0.000000;0.074741;-0.000012;0.000000;-0.498201;0.000074;0.000000;0.990831;-0.000110;0.000000
2.464000;0.493722;0.100001;0.000000;0.070787;-0.000011;0.000000;-0.490059;0.000073;0.000000;1.044679;-0.000120;0.000000
2.472000;0.494273;0.100001;0.000000;0.066901;-0.000010;0.000000;-0.481485;0.000072;0.000000;1.099104;-0.000130;0.000000
2.480000;0.494793;0.100001;0.000000;0.063085;-0.000010;0.000000;-0.472472;0.000071;0.000000;1.154105;-0.000140;0.000000
2.488000;0.495283;0.100001;0.000000;0.059342;-0.000009;0.000000;-0.463017;0.000070;0.000000;1.209681;-0.000151;0.000000
2.496000;0.495743;0.100001;0.000000;0.055678;-0.000009;0.000000;-0.453116;0.000068;0.000000;1.265834;-0.000161;0.000000
2.504000;0.496174;0.100001;0.000000;0.052094;-0.000008;0.000000;-0.442762;0.000067;0.000000;1.322562;-0.000172;0.000000
2.512000;0.496576;0.100001;0.000000;0.048595;-0.000008;0.000000;-0.431953;0.000066;0.000000;1.379867;-0.000182;0.000000
2.520000;0.496951;0.100000;0.000000;0.045184;-0.000007;0.000000;-0.420683;0.000064;0.000000;1.437747;-0.000193;0.000000
2.528000;0.497300;0.100000;0.000000;0.041865;-0.000007;0.000000;-0.408948;0.000063;0.000000;1.496203;-0.000204;0.000000
2.536000;0.497622;0.100000;0.000000;0.038642;-0.000006;0.000000;-0.396742;0.000061;0.000000;1.555235;-0.000215;0.000000
2.544000;0.497918;0.100000;0.000000;0.035518;-0.000006;0.000000;-0.384062;0.000059;0.000000;1.614843;-0.000226;0.000000
2.552000;0.498190;0.100000;0.000000;0.032498;-0.000005;0.000000;-0.370903;0.000057;0.000000;1.675027;-0.000237;0.000000
2.560000;0.498438;0.100000;0.000000;0.029585;-0.000005;0.000000;-0.357260;0.000055;0.000000;1.735787;-0.000249;0.000000
2.568000;0.498664;0.100000;0.000000;0.026783;-0.000004;0.000000;-0.343129;0.000053;0.000000;1.797122;-0.000260;0.000000
2.576000;0.498867;0.100000;0.000000;0.024096;-0.000004;0.000000;-0.328505;0.000051;0.000000;1.859034;-0.000272;0.000000
2.584000;0.499050;0.100000;0.000000;0.021529;-0.000003;0.000000;-0.313383;0.000049;0.000000;1.921522;-0.000283;0.000000
2.592000;0.499212;0.100000;0.000000;0.019084;-0.000003;0.000000;-0.297759;0.000047;0.000000;1.984585;-0.000295;0.000000
2.600000;0.499355;0.100000;0.000000;0.016766;-0.000003;0.000000;-0.281628;0.000044;0.000000;2.048224;-0.000307;0.000000
2.608000;0.499481;0.100000;0.000000;0.014579;-0.000002;0.000000;-0.264986;0.000042;0.000000;2.112440;-0.000319;0.000000
2.616000;0.499589;0.100000;0.000000;0.012527;-0.000002;0.000000;-0.247828;0.000039;0.000000;2.177231;-0.000331;0.000000
2.624000;0.499681;0.100000;0.000000;0.010615;-0.000002;0.000000;-0.230149;0.000036;0.000000;2.242598;-0.000344;0.000000
2.632000;0.499759;0.100000;0.000000;0.008846;-0.000001;0.000000;-0.211944;0.000034;0.000000;2.308541;-0.000356;0.000000
2.640000;0.499823;0.100000;0.000000;0.007225;-0.000001;0.000000;-0.193210;0.000031;0.000000;2.375060;-0.000369;0.000000
2.648000;0.499875;0.100000;0.000000;0.005756;-0.000001;0.000000;-0.173942;0.000028;0.000000;2.442155;-0.000381;0.000000
2.656000;0.499916;0.100000;0.000000;0.004444;-0.000001;0.000000;-0.154134;0.000025;0.000000;2.509826;-0.000394;0.000000
2.664000;0.499947;0.100000;0.000000;0.003292;-0.000001;0.000000;-0.133783;0.000021;0.000000;2.578072;-0.000407;0.000000
2.672000;0.499969;0.100000;0.000000;0.002305;-0.000000;0.000000;-0.112884;0.000018;0.000000;2.646895;-0.000420;0.000000
2.680000;0.499984;0.100000;0.000000;0.001487;-0.000000;0.000000;-0.091431;0.000015;0.000000;2.716294;-0.000433;0.000000
2.688000;0.499993;0.100000;0.000000;0.000843;-0.000000;0.000000;-0.069422;0.000011;0.000000;2.786268;-0.000446;0.000000
2.696000;0.499998;0.100000;0.000000;0.000378;-0.000000;0.000000;-0.046850;0.000008;0.000000;2.856818;-0.000459;0.000000
2.704000;0.500000;0.100000;0.000000;0.000095;-0.000000;0.000000;-0.023711;0.000004;0.000000;2.927945;-0.000473;0.000000
2.712000;0.500000;0.100000;0.000000;0.000000;0.000000;0.000000;-0.000001;0.000000;0.000000;2.999647;-0.000486;0.000000
2.720000;0.500000;0.100000;0.000000;0.000000;0.000000;0.000000;0.000000;0.000000;0.000000;-0.000000;12.000000;0.000000
2.728000;0.500000;0.100001;0.000000;0.000000;0.000378;0.000000;-0.000000;0.093708;0.000000;-0.000000;11.428608;0.000000
2.736000;0.500000;0.100008;0.000000;0.000000;0.001487;0.000000;-0.000000;0.182882;0.000000;-0.000000;10.866432;0.000000
2.744000;0.500000;0.100027;0.000000;0.000000;0.003292;0.000000;-0.000000;0.267596;0.000000;-0.000000;10.313472;0.000000
2.752000;0.500000;0.100062;0.000000;0.000000;0.005757;0.000000;-0.000000;0.347922;0.000000;-0.000000;9.769728;0.000000
2.760000;0.500000;0.100120;0.000000;0.000000;0.008847;0.000000;-0.000000;0.423936;0.000000;-0.000000;9.235200;0.000000
2.768000;0.500000;0.100206;0.000000;0.000000;0.012529;0.000000;-0.000000;0.495710;0.000000;-0.000000;8.709888;0.000000
2.776000;0.500000;0.100322;0.000000;0.000000;0.016768;0.000000;-0.000000;0.563319;0.000000;-0.000000;8.193792;0.000000
2.784000;0.500000;0.100475;0.000000;0.000000;0.021531;0.000000;-0.000000;0.626835;0.000000;-0.000000;7.686912;0.000000
2.792000;0.500000;0.100668;0.000000;0.000000;0.026786;0.000000;-0.000000;0.686334;0.000000;-0.000000;7.189248;0.000000
2.800000;0.500000;0.100905;0.000000;0.000000;0.032502;0.000000;-0.000000;0.741888;0.000000;-0.000000;6.700800;0.000000
2.808000;0.500000;0.101189;0.000000;0.000000;0.038646;0.000000;-0.000000;0.793571;0.000000;-0.000000;6.221568;0.000000
2.816000;0.500000;0.101524;0.000000;0.000000;0.045189;0.000000;-0.000000;0.841458;0.000000;-0.000000;5.751552;0.000000
2.824000;0.500000;0.101913;0.000000;0.000000;0.052100;0.000000;-0.000000;0.885621;0.000000;-0.000000;5.290752;0.000000
2.832000;0.500000;0.102359;0.000000;0.000000;0.059349;0.000000;-0.000000;0.926134;0.000000;-0.000000;4.839168;0.000000
2.840000;0.500000;0.102864;0.000000;0.000000;0.066908;0.000000;-0.000000;0.963072;0.000000;-0.000000;4.396800;0.000000
2.848000;0.500000;0.103430;0.000000;0.000000;0.074749;0.000000;-0.000000;0.996508;0.000000;-0.000000;3.963648;0.000000
2.856000;0.500000;0.104060;0.000000;0.000000;0.082843;0.000000;-0.000000;1.026515;0.000000;-0.000000;3.539712;0.000000
2.864000;0.500000;0.104756;0.000000;0.000000;0.091164;0.000000;-0.000000;1.053168;0.000000;-0.000000;3.124992;0.000000
2.872000;0.500000;0.105520;0.000000;0.000000;0.099685;0.000000;-0.000000;1.076539;0.000000;-0.000000;2.719488;0.000000
2.880000;0.500000;0.106352;0.000000;0.000000;0.108380;0.000000;-0.000000;1.096704;0.000000;-0.000000;2.323200;0.000000
2.888000;0.500000;0.107254;0.000000;0.000000;0.117224;0.000000;-0.000000;1.113735;0.000000;-0.000000;1.936128;0.000000
2.896000;0.500000;0.108228;0.000000;0.000000;0.126192;0.000000;-0.000000;1.127707;0.000000;-0.000000;1.558272;0.000000
2.904000;0.500000;0.109273;0.000000;0.000000;0.135259;0.000000;-0.000000;1.138692;0.000000;-0.000000;1.189632;0.000000
2.912000;0.500000;0.110392;0.000000;0.000000;0.144403;0.000000;-0.000000;1.146765;0.000000;-0.000000;0.830208;0.000000
2.920000;0.500000;0.111584;0.000000;0.000000;0.153600;0.000000;-0.000000;1.152000;0.000000;-0.000000;0.480000;0.000000
2.928000;0.500000;0.112850;0.000000;0.000000;0.162828;0.000000;-0.000000;1.154470;0.000000;-0.000000;0.139008;0.000000
2.936000;0.500000;0.114189;0.000000;0.000000;0.172064;0.000000;-0.000000;1.154249;0.000000;-0.000000;-0.192768;0.000000
2.944000;0.500000;0.115603;0.000000;0.000000;0.181289;0.000000;-0.000000;1.151410;0.000000;-0.000000;-0.515328;0.000000
2.952000;0.500000;0.117090;0.000000;0.000000;0.190480;0.000000;-0.000000;1.146028;0.000000;-0.000000;-0.828672;0.000000
2.960000;0.500000;0.118650;0.000000;0.000000;0.199619;0.000000;-0.000000;1.138176;0.000000;-0.000000;-1.132800;0.000000
2.968000;0.500000;0.120284;0.000000;0.000000;0.208685;0.000000;-0.000000;1.127928;0.000000;0.000000;-1.427712;0.000000
2.976000;0.500000;0.121989;0.000000;0.000000;0.217659;0.000000;-0.000000;1.115357;0.000000;0.000000;-1.713408;0.000000
2.984000;0.500000;0.123766;0.000000;0.000000;0.226524;0.000000;-0.000000;1.100538;0.000000;0.000000;-1.989888;0.000000
2.992000;0.500000;0.125613;0.000000;0.000000;0.235262;0.000000;-0.000000;1.083544;0.000000;0.000000;-2.257152;0.000000
3.000000;0.500000;0.127530;0.000000;0.000000;0.243855;0.000000;-0.000000;1.064448;0.000000;0.000000;-2.515200;0.000000
3.008000;0.500000;0.129514;0.000000;0.000000;0.252288;0.000000;-0.000000;1.043325;0.000000;0.000000;-2.764032;0.000000
3.016000;0.500000;0.131566;0.000000;0.000000;0.260543;0.000000;-0.000000;1.020248;0.000000;0.000000;-3.003648;0.000000
3.024000;0.500000;0.133682;0.000000;0.000000;0.268607;0.000000;-0.000000;0.995291;0.000000;0.000000;-3.234048;0.000000
3.032000;0.500000;0.135863;0.000000;0.000000;0.276463;0.000000;-0.000000;0.968528;0.000000;0.000000;-3.455232;0.000000
3.040000;0.500000;0.138105;0.000000;0.000000;0.284099;0.000000;-0.000000;0.940032;0.000000;0.000000;-3.667200;0.000000
3.048000;0.500000;0.140408;0.000000;0.000000;0.291499;0.000000;-0.000000;0.909877;0.000000;0.000000;-3.869952;0.000000
3.056000;0.500000;0.142769;0.000000;-0.000000;0.298652;0.000000;-0.000000;0.878137;0.000000;0.000000;-4.063488;0.000000
3.064000;0.500000;0.145186;0.000000;-0.000000;0.305545;0.000000;-0.000000;0.844886;0.000000;0.000000;-4.247808;0.000000
3.072000;0.500000;0.147657;0.000000;-0.000000;0.312167;0.000000;-0.000000;0.810197;0.000000;0.000000;-4.422912;0.000000
3.080000;0.500000;0.150179;0.000000;-0.000000;0.318505;0.000000;-0.000000;0.774144;0.000000;0.000000;-4.588800;0.000000
3.088000;0.500000;0.152752;0.000000;-0.000000;0.324550;0.000000;-0.000000;0.736801;0.000000;0.000000;-4.745472;0.000000
3.096000;0.500000;0.155371;0.000000;-0.000000;0.330291;0.000000;-0.000000;0.698241;0.000000;0.000000;-4.892928;0.000000
3.104000;0.500000;0.158036;0.000000;-0.000000;0.335718;0.000000;-0.000000;0.658538;0.000000;0.000000;-5.031168;0.000000
3.112000;0.500000;0.160742;0.000000;-0.000000;0.340824;0.000000;-0.000000;0.617767;0.000000;0.000000;-5.160192;0.000000
3.120000;0.500000;0.163488;0.000000;-0.000000;0.345600;0.000000;-0.000000;0.576000;0.000000;0.000000;-5.280000;0.000000
3.128000;0.500000;0.166271;0.000000;-0.000000;0.350038;0.000000;-0.000000;0.533311;0.000000;0.000000;-5.390592;0.000000
3.136000;0.500000;0.169088;0.000000;-0.000000;0.354131;0.000000;-0.000000;0.489775;0.000000;0.000000;-5.491968;0.000000
3.144000;0.500000;0.171936;0.000000;-0.000000;0.357872;0.000000;-0.000000;0.445465;0.000000;0.000000;-5.584128;0.000000
3.152000;0.500000;0.174813;0.000000;-0.000000;0.361256;0.000000;-0.000000;0.400454;0.000000;0.000000;-5.667072;0.000000
3.160000;0.500000;0.177715;0.000000;-0.000000;0.364278;0.000000;-0.000000;0.354816;0.000000;0.000000;-5.740800;0.000000
3.168000;0.500000;0.180640;0.000000;-0.000000;0.366932;0.000000;-0.000000;0.308625;0.000000;0.000000;-5.805312;0.000000
3.176000;0.500000;0.183585;0.000000;-0.000000;0.369214;0.000000;-0.000000;0.261956;0.000000;0.000000;-5.860608;0.000000
3.184000;0.500000;0.186547;0.000000;-0.000000;0.371122;0.000000;-0.000000;0.214880;0.000000;0.000000;-5.906688;0.000000
3.192000;0.500000;0.189522;0.000000;-0.000000;0.372652;0.000000;-0.000000;0.167473;0.000000;0.000000;-5.943552;0.000000
3.200000;0.500000;0.192508;0.000000;-0.000000;0.373801;0.000000;-0.000000;0.119808;0.000000;0.000000;-5.971200;0.000000
3.208000;0.500000;0.195502;0.000000;-0.000000;0.374568;0.000000;-0.000000;0.071959;0.000000;0.000000;-5.989632;0.000000
3.216000;0.500000;0.198500;0.000000;-0.000000;0.374952;0.000000;-0.000000;0.023998;0.000000;0.000000;-5.998848;0.000000
3.224000;0.500000;0.201500;0.000000;-0.000000;0.374952;0.000000;-0.000000;-0.023998;0.000000;0.000000;-5.998848;0.000000
3.232000;0.500000;0.204498;0.000000;-0.000000;0.374568;0.000000;-0.000000;-0.071959;0.000000;0.000000;-5.989632;0.000000
3.240000;0.500000;0.207492;0.000000;-0.000000;0.373801;0.000000;-0.000000;-0.119808;0.000000;0.000000;-5.971200;0.000000
3.248000;0.500000;0.210478;0.000000;-0.000000;0.372652;0.000000;-0.000000;-0.167473;0.000000;0.000000;-5.943552;0.000000
3.256000;0.500000;0.213453;0.000000;-0.000000;0.371122;0.000000;-0.000000;-0.214880;0.000000;0.000000;-5.906688;0.000000
3.264000;0.500000;0.216415;0.000000;-0.000000;0.369214;0.000000;-0.000000;-0.261956;0.000000;0.000000;-5.860608;0.000000
3.272000;0.500000;0.219360;0.000000;-0.000000;0.366932;0.000000;-0.000000;-0.308625;0.000000;0.000000;-5.805312;0.000000
3.280000;0.500000;0.222285;0.000000;-0.000000;0.364278;0.000000;-0.000000;-0.354816;0.000000;0.000000;-5.740800;0.000000
3.288000;0.500000;0.225187;0.000000;-0.000000;0.361256;0.000000;-0.000000;-0.400454;0.000000;0.000000;-5.667072;0.000000
3.296000;0.500000;0.228064;0.000000;-0.000000;0.357872;0.000000;-0.000000;-0.445465;0.000000;0.000000;-5.584128;0.000000
3.304000;0.500000;0.230912;0.000000;-0.000000;0.354131;0.000000;-0.000000;-0.489775;0.000000;0.000000;-5.491968;0.000000
3.312000;0.500000;0.233729;0.000000;-0.000000;0.350038;0.000000;-0.000000;-0.533311;0.000000;0.000000;-5.390592;0.000000
3.320000;0.500000;0.236512;0.000000;-0.000000;0.345600;0.000000;0.000000;-0.576000;0.000000;0.000000;-5.280000;0.000000
3.328000;0.500000;0.239258;0.000000;-0.000000;0.340824;0.000000;0.000000;-0.617767;0.000000;0.000000;-5.160192;0.000000
3.336000;0.500000;0.241964;0.000000;-0.000000;0.335718;0.000000;0.000000;-0.658538;0.000000;0.000000;-5.031168;0.000000
3.344000;0.500000;0.244629;0.000000;-0.000000;0.330291;0.000000;0.000000;-0.698241;0.000000;0.000000;-4.892928;0.000000
3.352000;0.500000;0.247248;0.000000;-0.000000;0.324550;0.000000;0.000000;-0.736801;0.000000;0.000000;-4.745472;0.000000
3.360000;0.500000;0.249821;0.000000;-0.000000;0.318505;0.000000;0.000000;-0.774144;0.000000;0.000000;-4.588800;0.000000
3.368000;0.500000;0.252343;0.000000;-0.000000;0.312167;0.000000;0.000000;-0.810197;0.000000;0.000000;-4.422912;0.000000
3.376000;0.500000;0.254814;0.000000;-0.000000;0.305545;0.000000;0.000000;-0.844886;0.000000;0.000000;-4.247808;0.000000
3.384000;0.500000;0.257231;0.000000;-0.000000;0.298652;0.000000;0.000000;-0.878137;0.000000;0.000000;-4.063488;0.000000
3.392000;0.500000;0.259592;0.000000;-0.000000;0.291499;0.000000;0.000000;-0.909877;0.000000;0.000000;-3.869952;0.000000
3.400000;0.500000;0.261895;0.000000;-0.000000;0.284099;0.000000;0.000000;-0.940032;0.000000;0.000000;-3.667200;0.000000
3.408000;0.500000;0.264137;0.000000;-0.000000;0.276463;0.000000;0.000000;-0.968528;0.000000;0.000000;-3.455232;0.000000
3.416000;0.500000;0.266318;0.000000;-0.000000;0.268607;0.000000;0.000000;-0.995291;0.000000;0.000000;-3.234048;0.000000
3.424000;0.500000;0.268434;0.000000;-0.000000;0.260543;0.000000;0.000000;-1.020248;0.000000;0.000000;-3.003648;0.000000
3.432000;0.500000;0.270486;0.000000;-0.000000;0.252288;0.000000;0.000000;-1.043325;0.000000;0.000000;-2.764032;0.000000
3.440000;0.500000;0.272470;0.000000;-0.000000;0.243855;0.000000;0.000000;-1.064448;0.000000;0.000000;-2.515200;0.000000
3.448000;0.500000;0.274387;0.000000;-0.000000;0.235262;0.000000;0.000000;-1.083544;0.000000;0.000000;-2.257152;0.000000
3.456000;0.500000;0.276234;0.000000;-0.000000;0.226524;0.000000;0.000000;-1.100538;0.000000;0.000000;-1.989888;0.000000
3.464000;0.500000;0.278011;0.000000;-0.000000;0.217659;0.000000;0.000000;-1.115357;0.000000;0.000000;-1.713408;0.000000
3.472000;0.500000;0.279716;0.000000;-0.000000;0.208685;0.000000;0.000000;-1.127928;0.000000;0.000000;-1.427712;0.000000
3.480000;0.500000;0.281350;0.000000;-0.000000;0.199619;0.000000;0.000000;-1.138176;0.000000;0.000000;-1.132800;0.000000
3.488000;0.500000;0.282910;0.000000;-0.000000;0.190480;0.000000;0.000000;-1.146028;0.000000;0.000000;-0.828672;0.000000
3.496000;0.500000;0.284397;0.000000;-0.000000;0.181289;0.000000;0.000000;-1.151410;0.000000;0.000000;-0.515328;0.000000
3.504000;0.500000;0.285811;0.000000;-0.000000;0.172064;0.000000;0.000000;-1.154249;0.000000;0.000000;-0.192768;0.000000
3.512000;0.500000;0.287150;0.000000;-0.000000;0.162828;0.000000;0.000000;-1.154470;0.000000;0.000000;0.139008;0.000000
3.520000;0.500000;0.288416;0.000000;-0.000000;0.153600;0.000000;0.000000;-1.152000;0.000000;0.000000;0.480000;0.000000
3.528000;0.500000;0.289608;0.000000;-0.000000;0.144403;0.000000;0.000000;-1.146765;0.000000;0.000000;0.830208;0.000000
3.536000;0.500000;0.290727;0.000000;-0.000000;0.135259;0.000000;0.000000;-1.138692;0.000000;0.000000;1.189632;0.000000
3.544000;0.500000;0.291772;0.000000;-0.000000;0.126192;0.000000;0.000000;-1.127707;0.000000;-0.000000;1.558272;0.000000
3.552000;0.500000;0.292746;0.000000;-0.000000;0.117224;0.000000;0.000000;-1.113735;0.000000;-0.000000;1.936128;0.000000
3.560000;0.500000;0.293648;0.000000;-0.000000;0.108380;0.000000;0.000000;-1.096704;0.000000;-0.000000;2.323200;0.000000
3.568000;0.500000;0.294480;0.000000;-0.000000;0.099685;0.000000;0.000000;-1.076539;0.000000;-0.000000;2.719488;0.000000
3.576000;0.500000;0.295244;0.000000;-0.000000;0.091164;0.000000;0.000000;-1.053168;0.000000;-0.000000;3.124992;0.000000
3.584000;0.500000;0.295940;0.000000;-0.000000;0.082843;0.000000;0.000000;-1.026515;0.000000;-0.000000;3.539712;0.000000
3.592000;0.500000;0.296570;0.000000;-0.000000;0.074749;0.000000;0.000000;-0.996508;0.000000;-0.000000;3.963648;0.000000
3.600000;0.500000;0.297136;0.000000;-0.000000;0.066908;0.000000;0.000000;-0.963072;0.000000;-0.000000;4.396800;0.000000
3.608000;0.500000;0.297641;0.000000;-0.000000;0.059349;0.000000;0.000000;-0.926134;0.000000;-0.000000;4.839168;0.000000
3.616000;0.500000;0.298087;0.000000;-0.000000;0.052100;0.000000;0.000000;-0.885621;0.000000;-0.000000;5.290752;0.000000
3.624000;0.500000;0.298476;0.000000;-0.000000;0.045189;0.000000;0.000000;-0.841458;0.000000;-0.000000;5.751552;0.000000
3.632000;0.500000;0.298811;0.000000;-0.000000;0.038646;0.000000;0.000000;-0.793571;0.000000;-0.000000;6.221568;0.000000
3.640000;0.500000;0.299095;0.000000;-0.000000;0.032502;0.000000;0.000000;-0.741888;0.000000;-0.000000;6.700800;0.000000
3.648000;0.500000;0.299332;0.000000;-0.000000;0.026786;0.000000;0.000000;-0.686334;0.000000;-0.000000;7.189248;0.000000
3.656000;0.500000;0.299525;0.000000;-0.000000;0.021531;0.000000;0.000000;-0.626835;0.000000;-0.000000;7.686912;0.000000
3.664000;0.500000;0.299678;0.000000;-0.000000;0.016768;0.000000;0.000000;-0.563319;0.000000;-0.000000;8.193792;0.000000
3.672000;0.500000;0.299794;0.000000;-0.000000;0.012529;0.000000;0.000000;-0.495710;0.000000;-0.000000;8.709888;0.000000
3.680000;0.500000;0.299880;0.000000;-0.000000;0.008847;0.000000;0.000000;-0.423936;0.000000;-0.000000;9.235200;0.000000
3.688000;0.500000;0.299938;0.000000;-0.000000;0.005757;0.000000;0.000000;-0.347922;0.000000;-0.000000;9.769728;0.000000
3.696000;0.500000;0.299973;0.000000;-0.000000;0.003292;0.000000;0.000000;-0.267596;0.000000;-0.000000;10.313472;0.000000
3.704000;0.500000;0.299992;0.000000;-0.000000;0.001487;0.000000;0.000000;-0.182882;0.000000;-0.000000;10.866432;0.000000
3.712000;0.500000;0.299999;0.000000;-0.000000;0.000378;0.000000;0.000000;-0.093708;0.000000;-0.000000;11.428608;0.000000
3.720000;0.500000;0.299999;0.000000;-0.000000;0.000378;0.000000;0.000000;0.000000;0.000000;-2.146619;1.070594;0.000000
3.728000;0.500000;0.300002;0.000000;-0.000068;0.000412;0.000000;-0.016989;0.008473;0.000000;-2.100704;1.047688;0.000000
3.736000;0.499999;0.300006;0.000000;-0.000271;0.000513;0.000000;-0.033612;0.016763;0.000000;-2.055119;1.024947;0.000000
3.744000;0.499995;0.300010;0.000000;-0.000605;0.000680;0.000000;-0.049872;0.024873;0.000000;-2.009863;1.002370;0.000000
3.752000;0.499989;0.300017;0.000000;-0.001068;0.000910;0.000000;-0.065771;0.032802;0.000000;-1.964937;0.979958;0.000000
3.760000;0.499978;0.300025;0.000000;-0.001656;0.001204;0.000000;-0.081312;0.040552;0.000000;-1.920341;0.957710;0.000000
3.768000;0.499962;0.300036;0.000000;-0.002368;0.001559;0.000000;-0.096497;0.048126;0.000000;-1.876075;0.935627;0.000000
3.776000;0.499940;0.300050;0.000000;-0.003199;0.001974;0.000000;-0.111330;0.055523;0.000000;-1.832138;0.913708;0.000000
3.784000;0.499910;0.300068;0.000000;-0.004148;0.002447;0.000000;-0.125812;0.062745;0.000000;-1.788531;0.891954;0.000000
3.792000;0.499873;0.300090;0.000000;-0.005211;0.002977;0.000000;-0.139947;0.069795;0.000000;-1.745254;0.870364;0.000000
3.800000;0.499827;0.300116;0.000000;-0.006386;0.003563;0.000000;-0.153737;0.076672;0.000000;-1.702307;0.848939;0.000000
3.808000;0.499770;0.300147;0.000000;-0.007670;0.004203;0.000000;-0.167185;0.083378;0.000000;-1.659689;0.827678;0.000000
3.816000;0.499704;0.300183;0.000000;-0.009061;0.004897;0.000000;-0.180293;0.089915;0.000000;-1.617401;0.806582;0.000000
3.824000;0.499625;0.300225;0.000000;-0.010554;0.005641;0.000000;-0.193064;0.096284;0.000000;-1.575443;0.785650;0.000000
3.832000;0.499534;0.300274;0.000000;-0.012149;0.006437;0.000000;-0.205501;0.102486;0.000000;-1.533814;0.764883;0.000000
3.840000;0.499430;0.300328;0.000000;-0.013841;0.007281;0.000000;-0.217606;0.108522;0.000000;-1.492515;0.744280;0.000000
3.848000;0.499313;0.300390;0.000000;-0.015629;0.008173;0.000000;-0.229382;0.114395;0.000000;-1.451546;0.723842;0.000000
3.856000;0.499180;0.300459;0.000000;-0.017511;0.009111;0.000000;-0.240832;0.120104;0.000000;-1.410906;0.703568;0.000000
3.864000;0.499032;0.300536;0.000000;-0.019482;0.010094;0.000000;-0.251958;0.125652;0.000000;-1.370597;0.683459;0.000000
3.872000;0.498868;0.300621;0.000000;-0.021541;0.011121;0.000000;-0.262762;0.131040;0.000000;-1.330617;0.663515;0.000000
3.880000;0.498687;0.300714;0.000000;-0.023685;0.012190;0.000000;-0.273248;0.136269;0.000000;-1.290966;0.643734;0.000000
3.888000;0.498489;0.300816;0.000000;-0.025912;0.013301;0.000000;-0.283419;0.141340;0.000000;-1.251646;0.624119;0.000000
3.896000;0.498273;0.300927;0.000000;-0.028219;0.014451;0.000000;-0.293276;0.146255;0.000000;-1.212655;0.604668;0.000000
3.904000;0.498037;0.301047;0.000000;-0.030604;0.015640;0.000000;-0.302822;0.151015;0.000000;-1.173994;0.585381;0.000000
3.912000;0.497783;0.301177;0.000000;-0.033063;0.016867;0.000000;-0.312060;0.155622;0.000000;-1.135663;0.566259;0.000000
3.920000;0.497508;0.301317;0.000000;-0.035596;0.018130;0.000000;-0.320993;0.160076;0.000000;-1.097661;0.547302;0.000000
3.928000;0.497213;0.301468;0.000000;-0.038199;0.019428;0.000000;-0.329624;0.164379;0.000000;-1.059989;0.528508;0.000000
3.936000;0.496897;0.301628;0.000000;-0.040869;0.020759;0.000000;-0.337954;0.168532;0.000000;-1.022647;0.509880;0.000000
3.944000;0.496559;0.301800;0.000000;-0.043605;0.022124;0.000000;-0.345987;0.172538;0.000000;-0.985634;0.491416;0.000000
3.952000;0.496199;0.301982;0.000000;-0.046404;0.023520;0.000000;-0.353725;0.176396;0.000000;-0.948951;0.473116;0.000000
3.960000;0.495816;0.302176;0.000000;-0.049264;0.024946;0.000000;-0.361171;0.180108;0.000000;-0.912598;0.454981;0.000000
3.968000;0.495411;0.302382;0.000000;-0.052182;0.026401;0.000000;-0.368328;0.183676;0.000000;-0.876575;0.437011;0.000000
3.976000;0.494981;0.302599;0.000000;-0.055156;0.027884;0.000000;-0.375197;0.187100;0.000000;-0.840881;0.419205;0.000000
3.984000;0.494528;0.302828;0.000000;-0.058184;0.029394;0.000000;-0.381783;0.190383;0.000000;-0.805517;0.401564;0.000000
3.992000;0.494050;0.303069;0.000000;-0.061264;0.030930;0.000000;-0.388086;0.193526;0.000000;-0.770483;0.384087;0.000000
4.000000;0.493548;0.303323;0.000000;-0.064393;0.032490;0.000000;-0.394111;0.196529;0.000000;-0.735779;0.366774;0.000000
4.008000;0.493020;0.303589;0.000000;-0.067569;0.034074;0.000000;-0.399860;0.199395;0.000000;-0.701404;0.349626;0.000000
4.016000;0.492466;0.303868;0.000000;-0.070790;0.035680;0.000000;-0.405334;0.202124;0.000000;-0.667359;0.332643;0.000000
4.024000;0.491887;0.304160;0.000000;-0.074054;0.037308;0.000000;-0.410538;0.204717;0.000000;-0.633644;0.315824;0.000000
4.032000;0.491281;0.304465;0.000000;-0.077358;0.038955;0.000000;-0.415474;0.207177;0.000000;-0.600258;0.299170;0.000000
4.040000;0.490649;0.304783;0.000000;-0.080701;0.040622;0.000000;-0.420143;0.209505;0.000000;-0.567202;0.282680;0.000000
4.048000;0.489990;0.305115;0.000000;-0.084080;0.042307;0.000000;-0.424550;0.211701;0.000000;-0.534476;0.266354;0.000000
4.056000;0.489304;0.305460;0.000000;-0.087493;0.044009;0.000000;-0.428696;0.213767;0.000000;-0.502080;0.250194;0.000000
4.064000;0.488590;0.305819;0.000000;-0.090938;0.045727;0.000000;-0.432584;0.215704;0.000000;-0.470013;0.234197;0.000000
4.072000;0.487849;0.306192;0.000000;-0.094413;0.047460;0.000000;-0.436217;0.217514;0.000000;-0.438276;0.218365;0.000000
4.080000;0.487079;0.306578;0.000000;-0.097917;0.049207;0.000000;-0.439597;0.219198;0.000000;-0.406869;0.202698;0.000000
4.088000;0.486282;0.306979;0.000000;-0.101446;0.050967;0.000000;-0.442728;0.220758;0.000000;-0.375791;0.187195;0.000000
4.096000;0.485456;0.307394;0.000000;-0.105000;0.052739;0.000000;-0.445611;0.222194;0.000000;-0.345043;0.171857;0.000000
4.104000;0.484602;0.307823;0.000000;-0.108575;0.054522;0.000000;-0.448249;0.223508;0.000000;-0.314625;0.156683;0.000000
4.112000;0.483719;0.308266;0.000000;-0.112171;0.056314;0.000000;-0.450646;0.224701;0.000000;-0.284537;0.141674;0.000000
4.120000;0.482807;0.308724;0.000000;-0.115785;0.058116;0.000000;-0.452803;0.225775;0.000000;-0.254778;0.126829;0.000000
4.128000;0.481866;0.309196;0.000000;-0.119415;0.059927;0.000000;-0.454723;0.226731;0.000000;-0.225349;0.112149;0.000000
4.136000;0.480896;0.309683;0.000000;-0.123060;0.061744;0.000000;-0.456409;0.227570;0.000000;-0.196250;0.097633;0.000000
4.144000;0.479897;0.310184;0.000000;-0.126717;0.063567;0.000000;-0.457864;0.228294;0.000000;-0.167480;0.083282;0.000000
4.152000;0.478869;0.310700;0.000000;-0.130385;0.065396;0.000000;-0.459090;0.228903;0.000000;-0.139041;0.069096;0.000000
4.160000;0.477811;0.311231;0.000000;-0.134062;0.067230;0.000000;-0.460089;0.229400;0.000000;-0.110930;0.055073;0.000000
4.168000;0.476724;0.311776;0.000000;-0.137746;0.069066;0.000000;-0.460865;0.229785;0.000000;-0.083150;0.041216;0.000000
4.176000;0.475607;0.312336;0.000000;-0.141435;0.070906;0.000000;-0.461421;0.230060;0.000000;-0.055699;0.027523;0.000000
4.184000;0.474461;0.312910;0.000000;-0.145128;0.072747;0.000000;-0.461758;0.230225;0.000000;-0.028579;0.013994;0.000000
4.192000;0.473285;0.313500;0.000000;-0.148823;0.074589;0.000000;-0.461879;0.230284;0.000000;-0.001787;0.000630;0.000000
4.200000;0.472080;0.314104;0.000000;-0.152518;0.076431;0.000000;-0.461787;0.230236;0.000000;0.024674;-0.012570;0.000000
4.208000;0.470845;0.314722;0.000000;-0.156211;0.078273;0.000000;-0.461485;0.230083;0.000000;0.050806;-0.025605;0.000000
4.216000;0.469580;0.315356;0.000000;-0.159901;0.080112;0.000000;-0.460975;0.229827;0.000000;0.076608;-0.038476;0.000000
4.224000;0.468286;0.316004;0.000000;-0.163586;0.081950;0.000000;-0.460260;0.229468;0.000000;0.102080;-0.051182;0.000000
4.232000;0.466963;0.316667;0.000000;-0.167265;0.083784;0.000000;-0.459343;0.229008;0.000000;0.127223;-0.063723;0.000000
4.240000;0.465610;0.317345;0.000000;-0.170935;0.085613;0.000000;-0.458225;0.228449;0.000000;0.152036;-0.076100;0.000000
4.248000;0.464228;0.318037;0.000000;-0.174596;0.087438;0.000000;-0.456911;0.227791;0.000000;0.176519;-0.088313;0.000000
4.256000;0.462817;0.318744;0.000000;-0.178245;0.089258;0.000000;-0.455402;0.227036;0.000000;0.200672;-0.100361;0.000000
4.264000;0.461376;0.319465;0.000000;-0.181882;0.091071;0.000000;-0.453701;0.226186;0.000000;0.224496;-0.112244;0.000000
4.272000;0.459907;0.320201;0.000000;-0.185504;0.092877;0.000000;-0.451811;0.225241;0.000000;0.247990;-0.123963;0.000000
4.280000;0.458408;0.320951;0.000000;-0.189110;0.094674;0.000000;-0.449734;0.224203;0.000000;0.271154;-0.135518;0.000000
4.288000;0.456881;0.321716;0.000000;-0.192699;0.096464;0.000000;-0.447473;0.223073;0.000000;0.293989;-0.146908;0.000000
4.296000;0.455325;0.322494;0.000000;-0.196269;0.098243;0.000000;-0.445031;0.221853;0.000000;0.316494;-0.158133;0.000000
4.304000;0.453741;0.323288;0.000000;-0.199819;0.100013;0.000000;-0.442410;0.220543;0.000000;0.338669;-0.169194;0.000000
4.312000;0.452128;0.324095;0.000000;-0.203347;0.101772;0.000000;-0.439613;0.219146;0.000000;0.360514;-0.180091;0.000000
4.320000;0.450487;0.324916;0.000000;-0.206852;0.103519;0.000000;-0.436643;0.217662;0.000000;0.382030;-0.190822;0.000000
4.328000;0.448818;0.325751;0.000000;-0.210333;0.105254;0.000000;-0.433502;0.216093;0.000000;0.403216;-0.201390;0.000000
4.336000;0.447122;0.326600;0.000000;-0.213788;0.106976;0.000000;-0.430192;0.214441;0.000000;0.424072;-0.211793;0.000000
4.344000;0.445398;0.327463;0.000000;-0.217216;0.108685;0.000000;-0.426717;0.212705;0.000000;0.444599;-0.222031;0.000000
4.352000;0.443647;0.328339;0.000000;-0.220615;0.110379;0.000000;-0.423080;0.210888;0.000000;0.464795;-0.232105;0.000000
4.360000;0.441868;0.329229;0.000000;-0.223985;0.112059;0.000000;-0.419282;0.208992;0.000000;0.484662;-0.242014;0.000000
4.368000;0.440063;0.330132;0.000000;-0.227323;0.113723;0.000000;-0.415326;0.207017;0.000000;0.504200;-0.251759;0.000000
4.376000;0.438231;0.331048;0.000000;-0.230629;0.115371;0.000000;-0.411215;0.204964;0.000000;0.523407;-0.261340;0.000000
4.384000;0.436373;0.331978;0.000000;-0.233902;0.117002;0.000000;-0.406952;0.202836;0.000000;0.542285;-0.270755;0.000000
4.392000;0.434489;0.332920;0.000000;-0.237140;0.118616;0.000000;-0.402540;0.200633;0.000000;0.560834;-0.280007;0.000000
4.400000;0.432579;0.333875;0.000000;-0.240342;0.120212;0.000000;-0.397980;0.198356;0.000000;0.579052;-0.289094;0.000000
4.408000;0.430643;0.334843;0.000000;-0.243507;0.121790;0.000000;-0.393276;0.196007;0.000000;0.596941;-0.298016;0.000000
4.416000;0.428683;0.335824;0.000000;-0.246634;0.123348;0.000000;-0.388430;0.193588;0.000000;0.614500;-0.306774;0.000000
4.424000;0.426697;0.336817;0.000000;-0.249722;0.124887;0.000000;-0.383445;0.191100;0.000000;0.631729;-0.315367;0.000000
4.432000;0.424687;0.337822;0.000000;-0.252769;0.126406;0.000000;-0.378323;0.188543;0.000000;0.648629;-0.323796;0.000000
4.440000;0.422653;0.338839;0.000000;-0.255775;0.127903;0.000000;-0.373067;0.185919;0.000000;0.665199;-0.332060;0.000000
4.448000;0.420595;0.339868;0.000000;-0.258738;0.129380;0.000000;-0.367681;0.183230;0.000000;0.681439;-0.340160;0.000000
4.456000;0.418513;0.340909;0.000000;-0.261657;0.130835;0.000000;-0.362165;0.180477;0.000000;0.697349;-0.348095;0.000000
4.464000;0.416409;0.341962;0.000000;-0.264532;0.132268;0.000000;-0.356524;0.177661;0.000000;0.712930;-0.355865;0.000000
4.472000;0.414281;0.343026;0.000000;-0.267361;0.133677;0.000000;-0.350759;0.174784;0.000000;0.728181;-0.363472;0.000000
4.480000;0.412131;0.344101;0.000000;-0.270144;0.135064;0.000000;-0.344874;0.171846;0.000000;0.743102;-0.370913;0.000000
4.488000;0.409959;0.345187;0.000000;-0.272879;0.136427;0.000000;-0.338870;0.168850;0.000000;0.757694;-0.378190;0.000000
4.496000;0.407765;0.346283;0.000000;-0.275566;0.137765;0.000000;-0.332752;0.165795;0.000000;0.771956;-0.385303;0.000000
4.504000;0.405550;0.347391;0.000000;-0.278203;0.139079;0.000000;-0.326520;0.162685;0.000000;0.785888;-0.392251;0.000000
4.512000;0.403314;0.348509;0.000000;-0.280790;0.140368;0.000000;-0.320178;0.159520;0.000000;0.799490;-0.399035;0.000000
4.520000;0.401057;0.349637;0.000000;-0.283325;0.141632;0.000000;-0.313729;0.156301;0.000000;0.812763;-0.405654;0.000000
4.528000;0.398781;0.350775;0.000000;-0.285809;0.142869;0.000000;-0.307175;0.153030;0.000000;0.825706;-0.412109;0.000000
4.536000;0.396485;0.351922;0.000000;-0.288240;0.144080;0.000000;-0.300519;0.149708;0.000000;0.838319;-0.418399;0.000000
4.544000;0.394169;0.353080;0.000000;-0.290617;0.145264;0.000000;-0.293763;0.146336;0.000000;0.850602;-0.424524;0.000000
4.552000;0.391835;0.354247;0.000000;-0.292940;0.146421;0.000000;-0.286910;0.142916;0.000000;0.862556;-0.430485;0.000000
4.560000;0.389482;0.355422;0.000000;-0.295207;0.147551;0.000000;-0.279963;0.139449;0.000000;0.874180;-0.436282;0.000000
4.568000;0.387112;0.356607;0.000000;-0.297419;0.148652;0.000000;-0.272924;0.135936;0.000000;0.885475;-0.441914;0.000000
4.576000;0.384724;0.357801;0.000000;-0.299574;0.149725;0.000000;-0.265796;0.132378;0.000000;0.896439;-0.447381;0.000000
4.584000;0.382319;0.359003;0.000000;-0.301671;0.150770;0.000000;-0.258582;0.128778;0.000000;0.907074;-0.452684;0.000000
4.592000;0.379897;0.360213;0.000000;-0.303711;0.151786;0.000000;-0.251284;0.125136;0.000000;0.917379;-0.457823;0.000000
4.600000;0.377459;0.361431;0.000000;-0.305692;0.152772;0.000000;-0.243905;0.121453;0.000000;0.927355;-0.462797;0.000000
4.608000;0.375006;0.362657;0.000000;-0.307613;0.153729;0.000000;-0.236447;0.117732;0.000000;0.937001;-0.467606;0.000000
4.616000;0.372538;0.363891;0.000000;-0.309475;0.154656;0.000000;-0.228913;0.113972;0.000000;0.946317;-0.472251;0.000000
4.624000;0.370055;0.365132;0.000000;-0.311276;0.155552;0.000000;-0.221307;0.110176;0.000000;0.955303;-0.476732;0.000000
4.632000;0.367558;0.366380;0.000000;-0.313015;0.156418;0.000000;-0.213629;0.106345;0.000000;0.963960;-0.481048;0.000000
4.640000;0.365047;0.367634;0.000000;-0.314694;0.157254;0.000000;-0.205884;0.102480;0.000000;0.972286;-0.485199;0.000000
4.648000;0.362523;0.368896;0.000000;-0.316309;0.158058;0.000000;-0.198074;0.098582;0.000000;0.980284;-0.489186;0.000000
4.656000;0.359986;0.370163;0.000000;-0.317863;0.158831;0.000000;-0.190201;0.094653;0.000000;0.987951;-0.493008;0.000000
4.664000;0.357437;0.371437;0.000000;-0.319352;0.159572;0.000000;-0.182267;0.090694;0.000000;0.995289;-0.496666;0.000000
4.672000;0.354876;0.372716;0.000000;-0.320779;0.160282;0.000000;-0.174277;0.086707;0.000000;1.002297;-0.500160;0.000000
4.680000;0.352305;0.374001;0.000000;-0.322141;0.160960;0.000000;-0.166232;0.082692;0.000000;1.008975;-0.503489;0.000000
4.688000;0.349722;0.375292;0.000000;-0.323438;0.161605;0.000000;-0.158134;0.078652;0.000000;1.015324;-0.506653;0.000000
4.696000;0.347130;0.376587;0.000000;-0.324671;0.162218;0.000000;-0.149987;0.074586;0.000000;1.021342;-0.509653;0.000000
4.704000;0.344528;0.377887;0.000000;-0.325838;0.162798;0.000000;-0.141794;0.070498;0.000000;1.027032;-0.512488;0.000000
4.712000;0.341917;0.379192;0.000000;-0.326939;0.163346;0.000000;-0.133556;0.066387;0.000000;1.032391;-0.515159;0.000000
4.720000;0.339297;0.380500;0.000000;-0.327975;0.163861;0.000000;-0.125276;0.062255;0.000000;1.037421;-0.517665;0.000000
4.728000;0.336669;0.381813;0.000000;-0.328944;0.164342;0.000000;-0.116958;0.058105;0.000000;1.042121;-0.520007;0.000000
4.736000;0.334034;0.383130;0.000000;-0.329846;0.164790;0.000000;-0.108603;0.053936;0.000000;1.046491;-0.522184;0.000000
4.744000;0.331392;0.384450;0.000000;-0.330681;0.165205;0.000000;-0.100215;0.049750;0.000000;1.050531;-0.524197;0.000000
4.752000;0.328743;0.385773;0.000000;-0.331449;0.165586;0.000000;-0.091795;0.045549;0.000000;1.054242;-0.526045;0.000000
4.760000;0.326089;0.387099;0.000000;-0.332150;0.165934;0.000000;-0.083348;0.041334;0.000000;1.057623;-0.527729;0.000000
4.768000;0.323429;0.388428;0.000000;-0.332783;0.166247;0.000000;-0.074874;0.037106;0.000000;1.060675;-0.529248;0.000000
4.776000;0.320765;0.389759;0.000000;-0.333348;0.166527;0.000000;-0.066378;0.032866;0.000000;1.063396;-0.530603;0.000000
4.784000;0.318096;0.391092;0.000000;-0.333845;0.166773;0.000000;-0.057861;0.028617;0.000000;1.065788;-0.531793;0.000000
4.792000;0.315423;0.392427;0.000000;-0.334274;0.166985;0.000000;-0.049326;0.024358;0.000000;1.067850;-0.532819;0.000000
4.800000;0.312748;0.393764;0.000000;-0.334634;0.167163;0.000000;-0.040776;0.020092;0.000000;1.069583;-0.533680;0.000000
4.808000;0.310069;0.395102;0.000000;-0.334926;0.167307;0.000000;-0.032214;0.015820;0.000000;1.070986;-0.534377;0.000000
4.816000;0.307389;0.396441;0.000000;-0.335149;0.167416;0.000000;-0.023641;0.011542;0.000000;1.072059;-0.534909;0.000000
4.824000;0.304707;0.397780;0.000000;-0.335304;0.167491;0.000000;-0.015062;0.007262;0.000000;1.072802;-0.535276;0.000000
4.832000;0.302024;0.399120;0.000000;-0.335390;0.167532;0.000000;-0.006477;0.002978;0.000000;1.073216;-0.535479;0.000000
4.840000;0.299341;0.400461;0.000000;-0.335408;0.167539;0.000000;0.002109;-0.001306;0.000000;1.073299;-0.535518;0.000000
4.848000;0.296658;0.401801;0.000000;-0.335357;0.167511;0.000000;0.010695;-0.005589;0.000000;1.073054;-0.535392;0.000000
4.856000;0.293975;0.403141;0.000000;-0.335237;0.167449;0.000000;0.019277;-0.009872;0.000000;1.072478;-0.535102;0.000000
4.864000;0.291294;0.404480;0.000000;-0.335048;0.167353;0.000000;0.027853;-0.014151;0.000000;1.071573;-0.534647;0.000000
4.872000;0.288615;0.405818;0.000000;-0.334791;0.167223;0.000000;0.036421;-0.018425;0.000000;1.070338;-0.534027;0.000000
4.880000;0.285938;0.407156;0.000000;-0.334465;0.167059;0.000000;0.044978;-0.022695;0.000000;1.068773;-0.533243;0.000000
4.888000;0.283264;0.408491;0.000000;-0.334071;0.166860;0.000000;0.053521;-0.026957;0.000000;1.066879;-0.532295;0.000000
4.896000;0.280593;0.409825;0.000000;-0.333609;0.166627;0.000000;0.062047;-0.031211;0.000000;1.064654;-0.531182;0.000000
4.904000;0.277926;0.411157;0.000000;-0.333079;0.166361;0.000000;0.070554;-0.035455;0.000000;1.062101;-0.529904;0.000000
4.912000;0.275264;0.412487;0.000000;-0.332480;0.166060;0.000000;0.079040;-0.039689;0.000000;1.059217;-0.528462;0.000000
4.920000;0.272607;0.413814;0.000000;-0.331814;0.165726;0.000000;0.087501;-0.043910;0.000000;1.056004;-0.526856;0.000000
4.928000;0.269955;0.415138;0.000000;-0.331080;0.165358;0.000000;0.095935;-0.048118;0.000000;1.052461;-0.525085;0.000000
4.936000;0.267309;0.416460;0.000000;-0.330279;0.164956;0.000000;0.104339;-0.052311;0.000000;1.048588;-0.523149;0.000000
4.944000;0.264671;0.417778;0.000000;-0.329411;0.164521;0.000000;0.112711;-0.056488;0.000000;1.044385;-0.521049;0.000000
4.952000;0.262039;0.419092;0.000000;-0.328476;0.164052;0.000000;0.121049;-0.060648;0.000000;1.039853;-0.518785;0.000000
4.960000;0.259415;0.420402;0.000000;-0.327474;0.163550;0.000000;0.129348;-0.064788;0.000000;1.034991;-0.516356;0.000000
4.968000;0.256800;0.421709;0.000000;-0.326407;0.163015;0.000000;0.137608;-0.068909;0.000000;1.029800;-0.513762;0.000000
4.976000;0.254193;0.423010;0.000000;-0.325273;0.162448;0.000000;0.145824;-0.073008;0.000000;1.024278;-0.511004;0.000000
4.984000;0.251595;0.424308;0.000000;-0.324073;0.161847;0.000000;0.153995;-0.077084;0.000000;1.018427;-0.508081;0.000000
4.992000;0.249008;0.425600;0.000000;-0.322809;0.161215;0.000000;0.162118;-0.081137;0.000000;1.012246;-0.504994;0.000000
5.000000;0.246431;0.426887;0.000000;-0.321480;0.160549;0.000000;0.170190;-0.085164;0.000000;1.005736;-0.501742;0.000000
5.008000;0.243864;0.428169;0.000000;-0.320086;0.159852;0.000000;0.178209;-0.089164;0.000000;0.998896;-0.498326;0.000000
5.016000;0.241309;0.429445;0.000000;-0.318629;0.159123;0.000000;0.186172;-0.093137;0.000000;0.991726;-0.494746;0.000000
5.024000;0.238766;0.430715;0.000000;-0.317107;0.158362;0.000000;0.194076;-0.097080;0.000000;0.984226;-0.491000;0.000000
5.032000;0.236236;0.431978;0.000000;-0.315523;0.157570;0.000000;0.201918;-0.100992;0.000000;0.976396;-0.487091;0.000000
5.040000;0.233718;0.433236;0.000000;-0.313877;0.156746;0.000000;0.209697;-0.104873;0.000000;0.968237;-0.483017;0.000000
5.048000;0.231214;0.434486;0.000000;-0.312168;0.155892;0.000000;0.217409;-0.108720;0.000000;0.959749;-0.478778;0.000000
5.056000;0.228724;0.435730;0.000000;-0.310399;0.155007;0.000000;0.225052;-0.112533;0.000000;0.950930;-0.474375;0.000000
5.064000;0.226248;0.436966;0.000000;-0.308568;0.154091;0.000000;0.232623;-0.116310;0.000000;0.941782;-0.469807;0.000000
5.072000;0.223787;0.438195;0.000000;-0.306677;0.153146;0.000000;0.240120;-0.120049;0.000000;0.932304;-0.465075;0.000000
5.080000;0.221341;0.439416;0.000000;-0.304726;0.152171;0.000000;0.247539;-0.123750;0.000000;0.922496;-0.460178;0.000000
5.088000;0.218911;0.440630;0.000000;-0.302716;0.151166;0.000000;0.254879;-0.127412;0.000000;0.912359;-0.455117;0.000000
5.096000;0.216498;0.441835;0.000000;-0.300648;0.150132;0.000000;0.262136;-0.131032;0.000000;0.901891;-0.449891;0.000000
5.104000;0.214101;0.443032;0.000000;-0.298522;0.149069;0.000000;0.269308;-0.134610;0.000000;0.891094;-0.444500;0.000000
5.112000;0.211722;0.444220;0.000000;-0.296340;0.147978;0.000000;0.276393;-0.138143;0.000000;0.879968;-0.438946;0.000000
5.120000;0.209360;0.445399;0.000000;-0.294100;0.146859;0.000000;0.283387;-0.141632;0.000000;0.868512;-0.433226;0.000000
5.128000;0.207016;0.446570;0.000000;-0.291806;0.145712;0.000000;0.290288;-0.145075;0.000000;0.856726;-0.427342;0.000000
5.136000;0.204691;0.447731;0.000000;-0.289456;0.144538;0.000000;0.297094;-0.148469;0.000000;0.844610;-0.421294;0.000000
5.144000;0.202385;0.448882;0.000000;-0.287052;0.143337;0.000000;0.303801;-0.151815;0.000000;0.832164;-0.415081;0.000000
5.152000;0.200098;0.450024;0.000000;-0.284596;0.142109;0.000000;0.310407;-0.155110;0.000000;0.819389;-0.408704;0.000000
5.160000;0.197832;0.451156;0.000000;-0.282086;0.140855;0.000000;0.316910;-0.158354;0.000000;0.806284;-0.402162;0.000000
5.168000;0.195585;0.452278;0.000000;-0.279525;0.139576;0.000000;0.323307;-0.161544;0.000000;0.792850;-0.395456;0.000000
5.176000;0.193359;0.453389;0.000000;-0.276914;0.138271;0.000000;0.329595;-0.164681;0.000000;0.779085;-0.388585;0.000000
5.184000;0.191155;0.454490;0.000000;-0.274252;0.136941;0.000000;0.335772;-0.167761;0.000000;0.764991;-0.381549;0.000000
5.192000;0.188971;0.455580;0.000000;-0.271542;0.135587;0.000000;0.341834;-0.170785;0.000000;0.750567;-0.374349;0.000000
5.200000;0.186810;0.456659;0.000000;-0.268783;0.134209;0.000000;0.347780;-0.173750;0.000000;0.735814;-0.366985;0.000000
5.208000;0.184671;0.457727;0.000000;-0.265977;0.132807;0.000000;0.353606;-0.176656;0.000000;0.720731;-0.359456;0.000000
5.216000;0.182555;0.458784;0.000000;-0.263126;0.131382;0.000000;0.359311;-0.179501;0.000000;0.705318;-0.351762;0.000000
5.224000;0.180461;0.459829;0.000000;-0.260229;0.129935;0.000000;0.364890;-0.182284;0.000000;0.689575;-0.343904;0.000000
5.232000;0.178391;0.460863;0.000000;-0.257288;0.128466;0.000000;0.370343;-0.185003;0.000000;0.673502;-0.335882;0.000000
5.240000;0.176345;0.461885;0.000000;-0.254304;0.126975;0.000000;0.375666;-0.187658;0.000000;0.657100;-0.327695;0.000000
5.248000;0.174322;0.462895;0.000000;-0.251277;0.125464;0.000000;0.380856;-0.190246;0.000000;0.640368;-0.319343;0.000000
5.256000;0.172324;0.463892;0.000000;-0.248210;0.123932;0.000000;0.385911;-0.192767;0.000000;0.623307;-0.310827;0.000000
5.264000;0.170351;0.464877;0.000000;-0.245103;0.122380;0.000000;0.390828;-0.195219;0.000000;0.605916;-0.302147;0.000000
5.272000;0.168403;0.465850;0.000000;-0.241957;0.120808;0.000000;0.395604;-0.197601;0.000000;0.588195;-0.293302;0.000000
5.280000;0.166480;0.466810;0.000000;-0.238774;0.119218;0.000000;0.400238;-0.199911;0.000000;0.570144;-0.284292;0.000000
5.288000;0.164583;0.467758;0.000000;-0.235554;0.117610;0.000000;0.404726;-0.202149;0.000000;0.551763;-0.275118;0.000000
5.296000;0.162711;0.468692;0.000000;-0.232299;0.115984;0.000000;0.409065;-0.204313;0.000000;0.533053;-0.265779;0.000000
5.304000;0.160866;0.469613;0.000000;-0.229009;0.114341;0.000000;0.413254;-0.206401;0.000000;0.514013;-0.256276;0.000000
5.312000;0.159047;0.470521;0.000000;-0.225687;0.112682;0.000000;0.417289;-0.208413;0.000000;0.494644;-0.246608;0.000000
5.320000;0.157255;0.471416;0.000000;-0.222333;0.111007;0.000000;0.421167;-0.210346;0.000000;0.474945;-0.236776;0.000000
5.328000;0.155490;0.472297;0.000000;-0.218949;0.109316;0.000000;0.424887;-0.212201;0.000000;0.454915;-0.226780;0.000000
5.336000;0.153752;0.473165;0.000000;-0.215535;0.107612;0.000000;0.428445;-0.213974;0.000000;0.434557;-0.216619;0.000000
5.344000;0.152041;0.474019;0.000000;-0.212094;0.105893;0.000000;0.431839;-0.215666;0.000000;0.413868;-0.206293;0.000000
5.352000;0.150358;0.474859;0.000000;-0.208626;0.104161;0.000000;0.435066;-0.217274;0.000000;0.392850;-0.195803;0.000000
5.360000;0.148703;0.475686;0.000000;-0.205134;0.102417;0.000000;0.438124;-0.218798;0.000000;0.371502;-0.185148;0.000000
5.368000;0.147076;0.476498;0.000000;-0.201617;0.100661;0.000000;0.441009;-0.220236;0.000000;0.349824;-0.174329;0.000000
5.376000;0.145478;0.477296;0.000000;-0.198078;0.098893;0.000000;0.443720;-0.221587;0.000000;0.327817;-0.163345;0.000000
5.384000;0.143907;0.478080;0.000000;-0.194518;0.097115;0.000000;0.446253;-0.222849;0.000000;0.305480;-0.152197;0.000000
5.392000;0.142365;0.478850;0.000000;-0.190938;0.095328;0.000000;0.448607;-0.224022;0.000000;0.282813;-0.140884;0.000000
5.400000;0.140852;0.479606;0.000000;-0.187341;0.093531;0.000000;0.450777;-0.225103;0.000000;0.259817;-0.129407;0.000000
5.408000;0.139368;0.480347;0.000000;-0.183726;0.091727;0.000000;0.452763;-0.226092;0.000000;0.236490;-0.117765;0.000000
5.416000;0.137913;0.481073;0.000000;-0.180097;0.089914;0.000000;0.454560;-0.226987;0.000000;0.212835;-0.105959;0.000000
5.424000;0.136486;0.481785;0.000000;-0.176454;0.088095;0.000000;0.456167;-0.227787;0.000000;0.188849;-0.093988;0.000000
5.432000;0.135089;0.482483;0.000000;-0.172799;0.086270;0.000000;0.457581;-0.228490;0.000000;0.164533;-0.081852;0.000000
5.440000;0.133722;0.483166;0.000000;-0.169133;0.084439;0.000000;0.458799;-0.229096;0.000000;0.139888;-0.069553;0.000000
5.448000;0.132383;0.483834;0.000000;-0.165458;0.082605;0.000000;0.459818;-0.229603;0.000000;0.114913;-0.057088;0.000000
5.456000;0.131074;0.484487;0.000000;-0.161777;0.080766;0.000000;0.460637;-0.230009;0.000000;0.089609;-0.044459;0.000000
5.464000;0.129795;0.485126;0.000000;-0.158089;0.078925;0.000000;0.461251;-0.230314;0.000000;0.063975;-0.031666;0.000000
5.472000;0.128545;0.485750;0.000000;-0.154397;0.077081;0.000000;0.461659;-0.230515;0.000000;0.038011;-0.018708;0.000000
5.480000;0.127324;0.486359;0.000000;-0.150703;0.075237;0.000000;0.461859;-0.230613;0.000000;0.011717;-0.005586;0.000000
5.488000;0.126134;0.486954;0.000000;-0.147008;0.073392;0.000000;0.461846;-0.230604;0.000000;-0.014907;0.007701;0.000000
5.496000;0.124972;0.487534;0.000000;-0.143314;0.071547;0.000000;0.461619;-0.230489;0.000000;-0.041860;0.021153;0.000000
5.504000;0.123841;0.488099;0.000000;-0.139623;0.069704;0.000000;0.461175;-0.230265;0.000000;-0.069143;0.034769;0.000000
5.512000;0.122738;0.488649;0.000000;-0.135936;0.067863;0.000000;0.460512;-0.229932;0.000000;-0.096755;0.048549;0.000000
5.520000;0.121666;0.489184;0.000000;-0.132255;0.066026;0.000000;0.459626;-0.229488;0.000000;-0.124697;0.062494;0.000000
5.528000;0.120622;0.489705;0.000000;-0.128582;0.064192;0.000000;0.458516;-0.228932;0.000000;-0.152970;0.076603;0.000000
5.536000;0.119608;0.490211;0.000000;-0.124919;0.062363;0.000000;0.457178;-0.228262;0.000000;-0.181571;0.090877;0.000000
5.544000;0.118624;0.490703;0.000000;-0.121268;0.060540;0.000000;0.455610;-0.227477;0.000000;-0.210503;0.105316;0.000000
5.552000;0.117668;0.491180;0.000000;-0.117630;0.058724;0.000000;0.453809;-0.226577;0.000000;-0.239764;0.119919;0.000000
5.560000;0.116741;0.491643;0.000000;-0.114008;0.056915;0.000000;0.451773;-0.225558;0.000000;-0.269355;0.134686;0.000000
5.568000;0.115844;0.492091;0.000000;-0.110402;0.055115;0.000000;0.449499;-0.224421;0.000000;-0.299276;0.149618;0.000000
5.576000;0.114975;0.492525;0.000000;-0.106816;0.053325;0.000000;0.446984;-0.223164;0.000000;-0.329526;0.164715;0.000000
5.584000;0.114135;0.492944;0.000000;-0.103251;0.051545;0.000000;0.444225;-0.221785;0.000000;-0.360106;0.179976;0.000000
5.592000;0.113323;0.493349;0.000000;-0.099709;0.049776;0.000000;0.441221;-0.220284;0.000000;-0.391016;0.195402;0.000000
5.600000;0.112539;0.493740;0.000000;-0.096192;0.048021;0.000000;0.437968;-0.218658;0.000000;-0.422255;0.210992;0.000000
5.608000;0.111784;0.494118;0.000000;-0.092703;0.046278;0.000000;0.434464;-0.216907;0.000000;-0.453825;0.226746;0.000000
5.616000;0.111056;0.494481;0.000000;-0.089242;0.044550;0.000000;0.430706;-0.215030;0.000000;-0.485723;0.242665;0.000000
5.624000;0.110356;0.494830;0.000000;-0.085812;0.042838;0.000000;0.426692;-0.213024;0.000000;-0.517952;0.258749;0.000000
5.632000;0.109683;0.495166;0.000000;-0.082415;0.041142;0.000000;0.422418;-0.210890;0.000000;-0.550511;0.274997;0.000000
5.640000;0.109037;0.495489;0.000000;-0.079054;0.039464;0.000000;0.417883;-0.208624;0.000000;-0.583399;0.291410;0.000000
5.648000;0.108418;0.495798;0.000000;-0.075730;0.037805;0.000000;0.413083;-0.206227;0.000000;-0.616617;0.307987;0.000000
5.656000;0.107825;0.496094;0.000000;-0.072445;0.036165;0.000000;0.408016;-0.203696;0.000000;-0.650164;0.324729;0.000000
5.664000;0.107259;0.496377;0.000000;-0.069202;0.034546;0.000000;0.402679;-0.201030;0.000000;-0.684041;0.341635;0.000000
5.672000;0.106718;0.496647;0.000000;-0.066003;0.032949;0.000000;0.397070;-0.198229;0.000000;-0.718248;0.358706;0.000000
5.680000;0.106202;0.496904;0.000000;-0.062850;0.031375;0.000000;0.391186;-0.195291;0.000000;-0.752785;0.375941;0.000000
5.688000;0.105712;0.497149;0.000000;-0.059745;0.029825;0.000000;0.385025;-0.192214;0.000000;-0.787652;0.393341;0.000000
5.696000;0.105246;0.497381;0.000000;-0.056690;0.028300;0.000000;0.378583;-0.188997;0.000000;-0.822848;0.410905;0.000000
5.704000;0.104805;0.497601;0.000000;-0.053688;0.026801;0.000000;0.371858;-0.185639;0.000000;-0.858374;0.428634;0.000000
5.712000;0.104387;0.497810;0.000000;-0.050741;0.025330;0.000000;0.364848;-0.182138;0.000000;-0.894229;0.446527;0.000000
5.720000;0.103993;0.498007;0.000000;-0.047852;0.023887;0.000000;0.357550;-0.178494;0.000000;-0.930414;0.464585;0.000000
5.728000;0.103621;0.498192;0.000000;-0.045021;0.022474;0.000000;0.349961;-0.174704;0.000000;-0.966930;0.482807;0.000000
5.736000;0.103272;0.498366;0.000000;-0.042253;0.021092;0.000000;0.342078;-0.170769;0.000000;-1.003774;0.501194;0.000000
5.744000;0.102945;0.498530;0.000000;-0.039549;0.019742;0.000000;0.333899;-0.166685;0.000000;-1.040949;0.519745;0.000000
5.752000;0.102639;0.498682;0.000000;-0.036911;0.018426;0.000000;0.325422;-0.162452;0.000000;-1.078453;0.538461;0.000000
5.760000;0.102354;0.498825;0.000000;-0.034343;0.017144;0.000000;0.316643;-0.158069;0.000000;-1.116287;0.557341;0.000000
5.768000;0.102090;0.498957;0.000000;-0.031846;0.015897;0.000000;0.307561;-0.153534;0.000000;-1.154451;0.576386;0.000000
5.776000;0.101845;0.499079;0.000000;-0.029423;0.014687;0.000000;0.298171;-0.148846;0.000000;-1.192944;0.595595;0.000000
5.784000;0.101619;0.499192;0.000000;-0.027076;0.013516;0.000000;0.288473;-0.144004;0.000000;-1.231767;0.614969;0.000000
5.792000;0.101411;0.499296;0.000000;-0.024808;0.012384;0.000000;0.278462;-0.139007;0.000000;-1.270920;0.634508;0.000000
5.800000;0.101222;0.499390;0.000000;-0.022621;0.011292;0.000000;0.268137;-0.133852;0.000000;-1.310402;0.654211;0.000000
5.808000;0.101049;0.499476;0.000000;-0.020519;0.010242;0.000000;0.257495;-0.128539;0.000000;-1.350215;0.674078;0.000000
5.816000;0.100893;0.499554;0.000000;-0.018502;0.009236;0.000000;0.246533;-0.123066;0.000000;-1.390356;0.694110;0.000000
5.824000;0.100753;0.499624;0.000000;-0.016575;0.008274;0.000000;0.235248;-0.117433;0.000000;-1.430828;0.714306;0.000000
5.832000;0.100628;0.499687;0.000000;-0.014739;0.007357;0.000000;0.223639;-0.111637;0.000000;-1.471630;0.734667;0.000000
5.840000;0.100517;0.499742;0.000000;-0.012998;0.006488;0.000000;0.211701;-0.105677;0.000000;-1.512761;0.755193;0.000000
5.848000;0.100419;0.499791;0.000000;-0.011353;0.005667;0.000000;0.199433;-0.099553;0.000000;-1.554222;0.775883;0.000000
5.856000;0.100335;0.499833;0.000000;-0.009808;0.004896;0.000000;0.186833;-0.093263;0.000000;-1.596012;0.796737;0.000000
5.864000;0.100262;0.499869;0.000000;-0.008365;0.004175;0.000000;0.173896;-0.086805;0.000000;-1.638132;0.817756;0.000000
5.872000;0.100201;0.499900;0.000000;-0.007026;0.003507;0.000000;0.160622;-0.080178;0.000000;-1.680582;0.838940;0.000000
5.880000;0.100150;0.499925;0.000000;-0.005796;0.002893;0.000000;0.147006;-0.073382;0.000000;-1.723362;0.860288;0.000000
5.888000;0.100108;0.499946;0.000000;-0.004675;0.002334;0.000000;0.133047;-0.066413;0.000000;-1.766472;0.881800;0.000000
5.896000;0.100074;0.499963;0.000000;-0.003668;0.001831;0.000000;0.118742;-0.059272;0.000000;-1.809911;0.903477;0.000000
5.904000;0.100049;0.499976;0.000000;-0.002776;0.001386;0.000000;0.104088;-0.051957;0.000000;-1.853680;0.925319;0.000000
5.912000;0.100030;0.499985;0.000000;-0.002003;0.001000;0.000000;0.089082;-0.044467;0.000000;-1.897778;0.947325;0.000000
5.920000;0.100016;0.499992;0.000000;-0.001352;0.000675;0.000000;0.073722;-0.036800;0.000000;-1.942206;0.969496;0.000000
5.928000;0.100008;0.499996;0.000000;-0.000825;0.000412;0.000000;0.058006;-0.028954;0.000000;-1.986964;0.991831;0.000000
5.936000;0.100003;0.499999;0.000000;-0.000425;0.000212;0.000000;0.041930;-0.020930;0.000000;-2.032052;1.014330;0.000000
5.944000;0.100001;0.500000;0.000000;-0.000155;0.000077;0.000000;0.025492;-0.012725;0.000000;-2.077470;1.036994;0.000000
5.952000;0.100000;0.500000;0.000000;-0.000018;0.000009;0.000000;0.008690;-0.004337;0.000000;-2.123217;1.059823;0.000000
5.960000;0.100000;0.500000;0.000000;-0.000018;0.000009;0.000000;0.000000;0.000000;0.000000;0.000159;-3.000080;0.000000
5.968000;0.100000;0.500000;0.000000;-0.000018;-0.000086;0.000000;0.000001;-0.023713;0.000000;0.000156;-2.928366;0.000000
5.976000;0.100000;0.499998;0.000000;-0.000018;-0.000369;0.000000;0.000002;-0.046855;0.000000;0.000153;-2.857228;0.000000
5.984000;0.100000;0.499993;0.000000;-0.000018;-0.000835;0.000000;0.000004;-0.069431;0.000000;0.000149;-2.786667;0.000000
5.992000;0.099999;0.499984;0.000000;-0.000018;-0.001478;0.000000;0.000005;-0.091444;0.000000;0.000146;-2.716681;0.000000
6.000000;0.099999;0.499969;0.000000;-0.000018;-0.002296;0.000000;0.000006;-0.112899;0.000000;0.000143;-2.647271;0.000000
6.008000;0.099999;0.499947;0.000000;-0.000018;-0.003283;0.000000;0.000007;-0.133801;0.000000;0.000139;-2.578438;0.000000
6.016000;0.099999;0.499916;0.000000;-0.000017;-0.004436;0.000000;0.000008;-0.154156;0.000000;0.000136;-2.510180;0.000000
6.024000;0.099999;0.499876;0.000000;-0.000017;-0.005748;0.000000;0.000009;-0.173966;0.000000;0.000133;-2.442499;0.000000
6.032000;0.099999;0.499824;0.000000;-0.000017;-0.007218;0.000000;0.000010;-0.193237;0.000000;0.000130;-2.375393;0.000000
6.040000;0.099999;0.499760;0.000000;-0.000017;-0.008839;0.000000;0.000011;-0.211974;0.000000;0.000127;-2.308863;0.000000
6.048000;0.099998;0.499682;0.000000;-0.000017;-0.010608;0.000000;0.000012;-0.230180;0.000000;0.000123;-2.242910;0.000000
6.056000;0.099998;0.499590;0.000000;-0.000017;-0.012520;0.000000;0.000013;-0.247862;0.000000;0.000120;-2.177532;0.000000
6.064000;0.099998;0.499481;0.000000;-0.000017;-0.014572;0.000000;0.000014;-0.265022;0.000000;0.000117;-2.112731;0.000000
6.072000;0.099998;0.499356;0.000000;-0.000017;-0.016759;0.000000;0.000015;-0.281667;0.000000;0.000114;-2.048505;0.000000
6.080000;0.099998;0.499213;0.000000;-0.000017;-0.019077;0.000000;0.000016;-0.297800;0.000000;0.000111;-1.984856;0.000000
6.088000;0.099998;0.499051;0.000000;-0.000017;-0.021523;0.000000;0.000017;-0.313426;0.000000;0.000108;-1.921782;0.000000
6.096000;0.099998;0.498868;0.000000;-0.000016;-0.024091;0.000000;0.000018;-0.328550;0.000000;0.000105;-1.859285;0.000000
6.104000;0.099998;0.498665;0.000000;-0.000016;-0.026778;0.000000;0.000019;-0.343176;0.000000;0.000102;-1.797363;0.000000
6.112000;0.099997;0.498439;0.000000;-0.000016;-0.029580;0.000000;0.000020;-0.357309;0.000000;0.000099;-1.736018;0.000000
6.120000;0.099997;0.498191;0.000000;-0.000016;-0.032494;0.000000;0.000020;-0.370954;0.000000;0.000096;-1.675248;0.000000
6.128000;0.099997;0.497919;0.000000;-0.000016;-0.035514;0.000000;0.000021;-0.384115;0.000000;0.000094;-1.615055;0.000000
6.136000;0.099997;0.497623;0.000000;-0.000016;-0.038638;0.000000;0.000022;-0.396797;0.000000;0.000091;-1.555437;0.000000
6.144000;0.099997;0.497301;0.000000;-0.000015;-0.041862;0.000000;0.000023;-0.409004;0.000000;0.000088;-1.496396;0.000000
6.152000;0.099997;0.496953;0.000000;-0.000015;-0.045181;0.000000;0.000023;-0.420740;0.000000;0.000085;-1.437931;0.000000
6.160000;0.099997;0.496578;0.000000;-0.000015;-0.048592;0.000000;0.000024;-0.432012;0.000000;0.000082;-1.380041;0.000000
6.168000;0.099997;0.496175;0.000000;-0.000015;-0.052092;0.000000;0.000025;-0.442823;0.000000;0.000080;-1.322728;0.000000
6.176000;0.099996;0.495744;0.000000;-0.000015;-0.055676;0.000000;0.000025;-0.453177;0.000000;0.000077;-1.265990;0.000000
6.184000;0.099996;0.495284;0.000000;-0.000014;-0.059342;0.000000;0.000026;-0.463080;0.000000;0.000074;-1.209829;0.000000
6.192000;0.099996;0.494794;0.000000;-0.000014;-0.063085;0.000000;0.000026;-0.472536;0.000000;0.000071;-1.154244;0.000000
6.200000;0.099996;0.494274;0.000000;-0.000014;-0.066901;0.000000;0.000027;-0.481549;0.000000;0.000069;-1.099234;0.000000
6.208000;0.099996;0.493724;0.000000;-0.000014;-0.070788;0.000000;0.000027;-0.490125;0.000000;0.000066;-1.044801;0.000000
6.216000;0.099996;0.493142;0.000000;-0.000014;-0.074742;0.000000;0.000028;-0.498268;0.000000;0.000064;-0.990944;0.000000
6.224000;0.099996;0.492528;0.000000;-0.000013;-0.078759;0.000000;0.000028;-0.505982;0.000000;0.000061;-0.937662;0.000000
6.232000;0.099996;0.491881;0.000000;-0.000013;-0.082837;0.000000;0.000029;-0.513272;0.000000;0.000058;-0.884957;0.000000
6.240000;0.099996;0.491202;0.000000;-0.000013;-0.086971;0.000000;0.000029;-0.520143;0.000000;0.000056;-0.832828;0.000000
6.248000;0.099995;0.490490;0.000000;-0.000013;-0.091158;0.000000;0.000030;-0.526599;0.000000;0.000053;-0.781275;0.000000
6.256000;0.099995;0.489743;0.000000;-0.000012;-0.095395;0.000000;0.000030;-0.532645;0.000000;0.000051;-0.730297;0.000000
6.264000;0.099995;0.488963;0.000000;-0.000012;-0.099679;0.000000;0.000031;-0.538285;0.000000;0.000049;-0.679896;0.000000
6.272000;0.099995;0.488148;0.000000;-0.000012;-0.104006;0.000000;0.000031;-0.543525;0.000000;0.000046;-0.630071;0.000000
6.280000;0.099995;0.487299;0.000000;-0.000012;-0.108374;0.000000;0.000031;-0.548368;0.000000;0.000044;-0.580822;0.000000
6.288000;0.099995;0.486414;0.000000;-0.000011;-0.112779;0.000000;0.000032;-0.552819;0.000000;0.000041;-0.532149;0.000000
6.296000;0.099995;0.485494;0.000000;-0.000011;-0.117218;0.000000;0.000032;-0.556884;0.000000;0.000039;-0.484051;0.000000
6.304000;0.099995;0.484539;0.000000;-0.000011;-0.121688;0.000000;0.000032;-0.560566;0.000000;0.000037;-0.436530;0.000000
6.312000;0.099995;0.483547;0.000000;-0.000011;-0.126186;0.000000;0.000033;-0.563870;0.000000;0.000034;-0.389585;0.000000
6.320000;0.099995;0.482520;0.000000;-0.000010;-0.130709;0.000000;0.000033;-0.566800;0.000000;0.000032;-0.343216;0.000000
6.328000;0.099995;0.481456;0.000000;-0.000010;-0.135254;0.000000;0.000033;-0.569363;0.000000;0.000030;-0.297423;0.000000
6.336000;0.099994;0.480356;0.000000;-0.000010;-0.139818;0.000000;0.000033;-0.571561;0.000000;0.000028;-0.252206;0.000000
6.344000;0.099994;0.479219;0.000000;-0.000010;-0.144398;0.000000;0.000034;-0.573399;0.000000;0.000026;-0.207565;0.000000
6.352000;0.099994;0.478045;0.000000;-0.000009;-0.148992;0.000000;0.000034;-0.574883;0.000000;0.000023;-0.163500;0.000000
6.360000;0.099994;0.476835;0.000000;-0.000009;-0.153595;0.000000;0.000034;-0.576017;0.000000;0.000021;-0.120011;0.000000
6.368000;0.099994;0.475588;0.000000;-0.000009;-0.158207;0.000000;0.000034;-0.576805;0.000000;0.000019;-0.077097;0.000000
6.376000;0.099994;0.474304;0.000000;-0.000009;-0.162823;0.000000;0.000034;-0.577252;0.000000;0.000017;-0.034760;0.000000
6.384000;0.099994;0.472982;0.000000;-0.000008;-0.167442;0.000000;0.000034;-0.577363;0.000000;0.000015;0.007001;0.000000
6.392000;0.099994;0.471624;0.000000;-0.000008;-0.172060;0.000000;0.000035;-0.577142;0.000000;0.000013;0.048186;0.000000
6.400000;0.099994;0.470230;0.000000;-0.000008;-0.176676;0.000000;0.000035;-0.576593;0.000000;0.000011;0.088795;0.000000
6.408000;0.099994;0.468798;0.000000;-0.000007;-0.181285;0.000000;0.000035;-0.575722;0.000000;0.000009;0.128828;0.000000
6.416000;0.099994;0.467329;0.000000;-0.000007;-0.185886;0.000000;0.000035;-0.574534;0.000000;0.000007;0.168285;0.000000
6.424000;0.099994;0.465824;0.000000;-0.000007;-0.190477;0.000000;0.000035;-0.573031;0.000000;0.000005;0.207166;0.000000
6.432000;0.099994;0.464281;0.000000;-0.000007;-0.195054;0.000000;0.000035;-0.571220;0.000000;0.000003;0.245471;0.000000
6.440000;0.099994;0.462703;0.000000;-0.000006;-0.199615;0.000000;0.000035;-0.569105;0.000000;0.000001;0.283199;0.000000
6.448000;0.099994;0.461088;0.000000;-0.000006;-0.204159;0.000000;0.000035;-0.566691;0.000000;-0.000001;0.320352;0.000000
6.456000;0.099994;0.459436;0.000000;-0.000006;-0.208682;0.000000;0.000035;-0.563981;0.000000;-0.000002;0.356929;0.000000
6.464000;0.099993;0.457749;0.000000;-0.000005;-0.213182;0.000000;0.000035;-0.560982;0.000000;-0.000004;0.392930;0.000000
6.472000;0.099993;0.456025;0.000000;-0.000005;-0.217657;0.000000;0.000035;-0.557696;0.000000;-0.000006;0.428355;0.000000
6.480000;0.099993;0.454266;0.000000;-0.000005;-0.222104;0.000000;0.000035;-0.554129;0.000000;-0.000008;0.463204;0.000000
6.488000;0.099993;0.452472;0.000000;-0.000005;-0.226522;0.000000;0.000035;-0.550286;0.000000;-0.000009;0.497477;0.000000
6.496000;0.099993;0.450642;0.000000;-0.000004;-0.230908;0.000000;0.000035;-0.546171;0.000000;-0.000011;0.531174;0.000000
6.504000;0.099993;0.448777;0.000000;-0.000004;-0.235260;0.000000;0.000034;-0.541789;0.000000;-0.000013;0.564295;0.000000
6.512000;0.099993;0.446878;0.000000;-0.000004;-0.239576;0.000000;0.000034;-0.537144;0.000000;-0.000014;0.596839;0.000000
6.520000;0.099993;0.444944;0.000000;-0.000004;-0.243854;0.000000;0.000034;-0.532241;0.000000;-0.000016;0.628808;0.000000
6.528000;0.099993;0.442976;0.000000;-0.000003;-0.248091;0.000000;0.000034;-0.527085;0.000000;-0.000018;0.660201;0.000000
6.536000;0.099993;0.440975;0.000000;-0.000003;-0.252286;0.000000;0.000034;-0.521679;0.000000;-0.000019;0.691018;0.000000
6.544000;0.099993;0.438940;0.000000;-0.000003;-0.256437;0.000000;0.000034;-0.516030;0.000000;-0.000021;0.721259;0.000000
6.552000;0.099993;0.436872;0.000000;-0.000002;-0.260542;0.000000;0.000034;-0.510141;0.000000;-0.000022;0.750923;0.000000
6.560000;0.099993;0.434771;0.000000;-0.000002;-0.264599;0.000000;0.000033;-0.504017;0.000000;-0.000024;0.780012;0.000000
6.568000;0.099993;0.432639;0.000000;-0.000002;-0.268606;0.000000;0.000033;-0.497662;0.000000;-0.000025;0.808525;0.000000
6.576000;0.099993;0.430474;0.000000;-0.000002;-0.272561;0.000000;0.000033;-0.491082;0.000000;-0.000027;0.836462;0.000000
6.584000;0.099993;0.428278;0.000000;-0.000001;-0.276463;0.000000;0.000033;-0.484280;0.000000;-0.000028;0.863822;0.000000
6.592000;0.099993;0.426051;0.000000;-0.000001;-0.280309;0.000000;0.000033;-0.477262;0.000000;-0.000030;0.890607;0.000000
6.600000;0.099993;0.423793;0.000000;-0.000001;-0.284098;0.000000;0.000032;-0.470032;0.000000;-0.000031;0.916816;0.000000
6.608000;0.099993;0.421505;0.000000;-0.000001;-0.287829;0.000000;0.000032;-0.462595;0.000000;-0.000032;0.942448;0.000000
6.616000;0.099993;0.419188;0.000000;-0.000000;-0.291499;0.000000;0.000032;-0.454955;0.000000;-0.000034;0.967505;0.000000
6.624000;0.099993;0.416841;0.000000;-0.000000;-0.295108;0.000000;0.000032;-0.447116;0.000000;-0.000035;0.991986;0.000000
6.632000;0.099993;0.414466;0.000000;0.000000;-0.298652;0.000000;0.000031;-0.439084;0.000000;-0.000036;1.015890;0.000000
6.640000;0.099993;0.412063;0.000000;0.000000;-0.302132;0.000000;0.000031;-0.430863;0.000000;-0.000037;1.039219;0.000000
6.648000;0.099993;0.409632;0.000000;0.000001;-0.305546;0.000000;0.000031;-0.422458;0.000000;-0.000039;1.061971;0.000000
6.656000;0.099993;0.407175;0.000000;0.000001;-0.308891;0.000000;0.000030;-0.413873;0.000000;-0.000040;1.084148;0.000000
6.664000;0.099993;0.404690;0.000000;0.000001;-0.312167;0.000000;0.000030;-0.405113;0.000000;-0.000041;1.105749;0.000000
6.672000;0.099993;0.402180;0.000000;0.000001;-0.315373;0.000000;0.000030;-0.396183;0.000000;-0.000042;1.126773;0.000000
6.680000;0.099993;0.399645;0.000000;0.000002;-0.318506;0.000000;0.000029;-0.387087;0.000000;-0.000043;1.147222;0.000000
6.688000;0.099993;0.397084;0.000000;0.000002;-0.321566;0.000000;0.000029;-0.377829;0.000000;-0.000044;1.167094;0.000000
6.696000;0.099993;0.394500;0.000000;0.000002;-0.324551;0.000000;0.000029;-0.368415;0.000000;-0.000045;1.186391;0.000000
6.704000;0.099993;0.391892;0.000000;0.000002;-0.327460;0.000000;0.000028;-0.358848;0.000000;-0.000046;1.205111;0.000000
6.712000;0.099993;0.389261;0.000000;0.000003;-0.330292;0.000000;0.000028;-0.349134;0.000000;-0.000048;1.223256;0.000000
6.720000;0.099993;0.386607;0.000000;0.000003;-0.333046;0.000000;0.000028;-0.339278;0.000000;-0.000049;1.240824;0.000000
6.728000;0.099993;0.383932;0.000000;0.000003;-0.335720;0.000000;0.000027;-0.329283;0.000000;-0.000049;1.257817;0.000000
6.736000;0.099993;0.381236;0.000000;0.000003;-0.338314;0.000000;0.000027;-0.319154;0.000000;-0.000050;1.274233;0.000000
6.744000;0.099993;0.378519;0.000000;0.000003;-0.340826;0.000000;0.000026;-0.308897;0.000000;-0.000051;1.290074;0.000000
6.752000;0.099993;0.375783;0.000000;0.000004;-0.343256;0.000000;0.000026;-0.298515;0.000000;-0.000052;1.305338;0.000000
6.760000;0.099993;0.373027;0.000000;0.000004;-0.345602;0.000000;0.000025;-0.288013;0.000000;-0.000053;1.320027;0.000000
6.768000;0.099993;0.370253;0.000000;0.000004;-0.347864;0.000000;0.000025;-0.277396;0.000000;-0.000054;1.334139;0.000000
6.776000;0.099993;0.367462;0.000000;0.000004;-0.350040;0.000000;0.000025;-0.266668;0.000000;-0.000055;1.347675;0.000000
6.784000;0.099993;0.364653;0.000000;0.000004;-0.352130;0.000000;0.000024;-0.255834;0.000000;-0.000056;1.360636;0.000000
6.792000;0.099993;0.361828;0.000000;0.000005;-0.354133;0.000000;0.000024;-0.244899;0.000000;-0.000056;1.373020;0.000000
6.800000;0.099993;0.358987;0.000000;0.000005;-0.356048;0.000000;0.000023;-0.233868;0.000000;-0.000057;1.384829;0.000000
6.808000;0.099993;0.356131;0.000000;0.000005;-0.357875;0.000000;0.000023;-0.222744;0.000000;-0.000058;1.396061;0.000000
6.816000;0.099994;0.353261;0.000000;0.000005;-0.359612;0.000000;0.000022;-0.211532;0.000000;-0.000058;1.406717;0.000000
6.824000;0.099994;0.350378;0.000000;0.000005;-0.361259;0.000000;0.000022;-0.200238;0.000000;-0.000059;1.416798;0.000000
6.832000;0.099994;0.347481;0.000000;0.000005;-0.362815;0.000000;0.000021;-0.188865;0.000000;-0.000060;1.426302;0.000000
6.840000;0.099994;0.344573;0.000000;0.000006;-0.364281;0.000000;0.000021;-0.177418;0.000000;-0.000060;1.435230;0.000000
6.848000;0.099994;0.341653;0.000000;0.000006;-0.365654;0.000000;0.000020;-0.165903;0.000000;-0.000061;1.443583;0.000000
6.856000;0.099994;0.338723;0.000000;0.000006;-0.366935;0.000000;0.000020;-0.154323;0.000000;-0.000061;1.451359;0.000000
6.864000;0.099994;0.335783;0.000000;0.000006;-0.368123;0.000000;0.000019;-0.142683;0.000000;-0.000062;1.458559;0.000000
6.872000;0.099994;0.332833;0.000000;0.000006;-0.369218;0.000000;0.000019;-0.130987;0.000000;-0.000062;1.465183;0.000000
6.880000;0.099994;0.329875;0.000000;0.000006;-0.370219;0.000000;0.000018;-0.119241;0.000000;-0.000063;1.471232;0.000000
6.888000;0.099994;0.326910;0.000000;0.000007;-0.371125;0.000000;0.000018;-0.107449;0.000000;-0.000063;1.476704;0.000000
6.896000;0.099994;0.323938;0.000000;0.000007;-0.371938;0.000000;0.000017;-0.095615;0.000000;-0.000064;1.481600;0.000000
6.904000;0.099994;0.320959;0.000000;0.000007;-0.372655;0.000000;0.000017;-0.083745;0.000000;-0.000064;1.485920;0.000000
6.912000;0.099994;0.317975;0.000000;0.000007;-0.373278;0.000000;0.000016;-0.071842;0.000000;-0.000065;1.489664;0.000000
6.920000;0.099994;0.314987;0.000000;0.000007;-0.373805;0.000000;0.000016;-0.059912;0.000000;-0.000065;1.492833;0.000000
6.928000;0.099994;0.311995;0.000000;0.000007;-0.374236;0.000000;0.000015;-0.047958;0.000000;-0.000065;1.495425;0.000000
6.936000;0.099994;0.308999;0.000000;0.000007;-0.374572;0.000000;0.000015;-0.035987;0.000000;-0.000066;1.497441;0.000000
6.944000;0.099994;0.306002;0.000000;0.000008;-0.374812;0.000000;0.000014;-0.024001;0.000000;-0.000066;1.498881;0.000000
6.952000;0.099994;0.303003;0.000000;0.000008;-0.374956;0.000000;0.000014;-0.012006;0.000000;-0.000066;1.499745;0.000000
6.960000;0.099994;0.300003;0.000000;0.000008;-0.375004;0.000000;0.000013;-0.000007;0.000000;-0.000066;1.500033;0.000000
6.968000;0.099995;0.297003;0.000000;0.000008;-0.374956;0.000000;0.000013;0.011993;0.000000;-0.000067;1.499745;0.000000
6.976000;0.099995;0.294004;0.000000;0.000008;-0.374812;0.000000;0.000012;0.023988;0.000000;-0.000067;1.498881;0.000000
6.984000;0.099995;0.291006;0.000000;0.000008;-0.374572;0.000000;0.000012;0.035973;0.000000;-0.000067;1.497442;0.000000
6.992000;0.099995;0.288011;0.000000;0.000008;-0.374236;0.000000;0.000011;0.047945;0.000000;-0.000067;1.495426;0.000000
7.000000;0.099995;0.285019;0.000000;0.000008;-0.373805;0.000000;0.000011;0.059899;0.000000;-0.000067;1.492834;0.000000
7.008000;0.099995;0.282030;0.000000;0.000008;-0.373278;0.000000;0.000010;0.071829;0.000000;-0.000067;1.489666;0.000000
7.016000;0.099995;0.279046;0.000000;0.000008;-0.372656;0.000000;0.000010;0.083732;0.000000;-0.000067;1.485922;0.000000
7.024000;0.099995;0.276068;0.000000;0.000008;-0.371939;0.000000;0.000009;0.095602;0.000000;-0.000067;1.481602;0.000000
7.032000;0.099995;0.273096;0.000000;0.000009;-0.371126;0.000000;0.000008;0.107436;0.000000;-0.000067;1.476706;0.000000
7.040000;0.099995;0.270130;0.000000;0.000009;-0.370220;0.000000;0.000008;0.119228;0.000000;-0.000067;1.471234;0.000000
7.048000;0.099995;0.267172;0.000000;0.000009;-0.369219;0.000000;0.000007;0.130974;0.000000;-0.000067;1.465186;0.000000
7.056000;0.099995;0.264223;0.000000;0.000009;-0.368124;0.000000;0.000007;0.142670;0.000000;-0.000067;1.458562;0.000000
7.064000;0.099995;0.261283;0.000000;0.000009;-0.366936;0.000000;0.000006;0.154310;0.000000;-0.000067;1.451362;0.000000
7.072000;0.099995;0.258352;0.000000;0.000009;-0.365655;0.000000;0.000006;0.165890;0.000000;-0.000067;1.443585;0.000000
7.080000;0.099995;0.255432;0.000000;0.000009;-0.364282;0.000000;0.000005;0.177405;0.000000;-0.000067;1.435233;0.000000
7.088000;0.099996;0.252524;0.000000;0.000009;-0.362817;0.000000;0.000005;0.188852;0.000000;-0.000066;1.426305;0.000000
7.096000;0.099996;0.249628;0.000000;0.000009;-0.361261;0.000000;0.000004;0.200225;0.000000;-0.000066;1.416801;0.000000
7.104000;0.099996;0.246744;0.000000;0.000009;-0.359614;0.000000;0.000004;0.211519;0.000000;-0.000066;1.406721;0.000000
7.112000;0.099996;0.243874;0.000000;0.000009;-0.357877;0.000000;0.000003;0.222731;0.000000;-0.000066;1.396065;0.000000
7.120000;0.099996;0.241018;0.000000;0.000009;-0.356050;0.000000;0.000003;0.233855;0.000000;-0.000066;1.384833;0.000000
7.128000;0.099996;0.238177;0.000000;0.000009;-0.354135;0.000000;0.000002;0.244887;0.000000;-0.000065;1.373025;0.000000
7.136000;0.099996;0.235352;0.000000;0.000009;-0.352132;0.000000;0.000002;0.255822;0.000000;-0.000065;1.360640;0.000000
7.144000;0.099996;0.232544;0.000000;0.000009;-0.350042;0.000000;0.000001;0.266655;0.000000;-0.000064;1.347680;0.000000
7.152000;0.099996;0.229752;0.000000;0.000009;-0.347866;0.000000;0.000001;0.277383;0.000000;-0.000064;1.334144;0.000000
7.160000;0.099996;0.226978;0.000000;0.000009;-0.345605;0.000000;0.000000;0.288000;0.000000;-0.000064;1.320032;0.000000
7.168000;0.099996;0.224222;0.000000;0.000009;-0.343258;0.000000;-0.000000;0.298502;0.000000;-0.000063;1.305344;0.000000
7.176000;0.099996;0.221486;0.000000;0.000009;-0.340829;0.000000;-0.000001;0.308884;0.000000;-0.000063;1.290079;0.000000
7.184000;0.099996;0.218769;0.000000;0.000009;-0.338317;0.000000;-0.000001;0.319142;0.000000;-0.000062;1.274239;0.000000
7.192000;0.099996;0.216073;0.000000;0.000009;-0.335723;0.000000;-0.000002;0.329270;0.000000;-0.000062;1.257823;0.000000
7.200000;0.099997;0.213398;0.000000;0.000009;-0.333049;0.000000;-0.000002;0.339265;0.000000;-0.000061;1.240831;0.000000
7.208000;0.099997;0.210745;0.000000;0.000009;-0.330295;0.000000;-0.000003;0.349122;0.000000;-0.000061;1.223262;0.000000
7.216000;0.099997;0.208113;0.000000;0.000009;-0.327463;0.000000;-0.000003;0.358836;0.000000;-0.000060;1.205118;0.000000
7.224000;0.099997;0.205505;0.000000;0.000009;-0.324554;0.000000;-0.000004;0.368402;0.000000;-0.000059;1.186398;0.000000
7.232000;0.099997;0.202921;0.000000;0.000009;-0.321569;0.000000;-0.000004;0.377817;0.000000;-0.000059;1.167101;0.000000
7.240000;0.099997;0.200360;0.000000;0.000009;-0.318509;0.000000;-0.000005;0.387075;0.000000;-0.000058;1.147229;0.000000
7.248000;0.099997;0.197825;0.000000;0.000009;-0.315376;0.000000;-0.000005;0.396171;0.000000;-0.000057;1.126781;0.000000
7.256000;0.099997;0.195315;0.000000;0.000009;-0.312171;0.000000;-0.000006;0.405101;0.000000;-0.000057;1.105756;0.000000
7.264000;0.099997;0.192830;0.000000;0.000009;-0.308895;0.000000;-0.000006;0.413861;0.000000;-0.000056;1.084156;0.000000
7.272000;0.099997;0.190372;0.000000;0.000009;-0.305550;0.000000;-0.000007;0.422446;0.000000;-0.000055;1.061980;0.000000
7.280000;0.099997;0.187942;0.000000;0.000009;-0.302136;0.000000;-0.000007;0.430852;0.000000;-0.000054;1.039227;0.000000
7.288000;0.099997;0.185538;0.000000;0.000009;-0.298657;0.000000;-0.000008;0.439073;0.000000;-0.000054;1.015899;0.000000
7.296000;0.099997;0.183163;0.000000;0.000008;-0.295112;0.000000;-0.000008;0.447104;0.000000;-0.000053;0.991994;0.000000
7.304000;0.099997;0.180817;0.000000;0.000008;-0.291503;0.000000;-0.000008;0.454943;0.000000;-0.000052;0.967514;0.000000
7.312000;0.099998;0.178499;0.000000;0.000008;-0.287833;0.000000;-0.000009;0.462583;0.000000;-0.000051;0.942457;0.000000
7.320000;0.099998;0.176212;0.000000;0.000008;-0.284103;0.000000;-0.000009;0.470021;0.000000;-0.000050;0.916825;0.000000
7.328000;0.099998;0.173954;0.000000;0.000008;-0.280313;0.000000;-0.000010;0.477251;0.000000;-0.000049;0.890616;0.000000
7.336000;0.099998;0.171727;0.000000;0.000008;-0.276467;0.000000;-0.000010;0.484269;0.000000;-0.000048;0.863832;0.000000
7.344000;0.099998;0.169531;0.000000;0.000008;-0.272566;0.000000;-0.000010;0.491071;0.000000;-0.000047;0.836471;0.000000
7.352000;0.099998;0.167366;0.000000;0.000008;-0.268611;0.000000;-0.000011;0.497651;0.000000;-0.000046;0.808535;0.000000
7.360000;0.099998;0.165233;0.000000;0.000008;-0.264604;0.000000;-0.000011;0.504006;0.000000;-0.000045;0.780022;0.000000
7.368000;0.099998;0.163132;0.000000;0.000008;-0.260547;0.000000;-0.000011;0.510130;0.000000;-0.000044;0.750934;0.000000
7.376000;0.099998;0.161064;0.000000;0.000008;-0.256442;0.000000;-0.000012;0.516019;0.000000;-0.000043;0.721269;0.000000
7.384000;0.099998;0.159029;0.000000;0.000008;-0.252292;0.000000;-0.000012;0.521669;0.000000;-0.000042;0.691029;0.000000
7.392000;0.099998;0.157028;0.000000;0.000007;-0.248096;0.000000;-0.000013;0.527074;0.000000;-0.000041;0.660212;0.000000
7.400000;0.099998;0.155060;0.000000;0.000007;-0.243859;0.000000;-0.000013;0.532230;0.000000;-0.000040;0.628820;0.000000
7.408000;0.099998;0.153126;0.000000;0.000007;-0.239581;0.000000;-0.000013;0.537134;0.000000;-0.000038;0.596851;0.000000
7.416000;0.099998;0.151227;0.000000;0.000007;-0.235266;0.000000;-0.000013;0.541779;0.000000;-0.000037;0.564306;0.000000
7.424000;0.099998;0.149362;0.000000;0.000007;-0.230914;0.000000;-0.000014;0.546161;0.000000;-0.000036;0.531186;0.000000
7.432000;0.099998;0.147532;0.000000;0.000007;-0.226528;0.000000;-0.000014;0.550276;0.000000;-0.000035;0.497489;0.000000
7.440000;0.099999;0.145738;0.000000;0.000007;-0.222110;0.000000;-0.000014;0.554119;0.000000;-0.000033;0.463216;0.000000
7.448000;0.099999;0.143979;0.000000;0.000007;-0.217663;0.000000;-0.000015;0.557686;0.000000;-0.000032;0.428368;0.000000
7.456000;0.099999;0.142255;0.000000;0.000007;-0.213188;0.000000;-0.000015;0.560972;0.000000;-0.000031;0.392943;0.000000
7.464000;0.099999;0.140568;0.000000;0.000007;-0.208688;0.000000;-0.000015;0.563971;0.000000;-0.000029;0.356942;0.000000
7.472000;0.099999;0.138916;0.000000;0.000006;-0.204165;0.000000;-0.000015;0.566681;0.000000;-0.000028;0.320366;0.000000
7.480000;0.099999;0.137301;0.000000;0.000006;-0.199622;0.000000;-0.000015;0.569096;0.000000;-0.000026;0.283213;0.000000
7.488000;0.099999;0.135722;0.000000;0.000006;-0.195060;0.000000;-0.000016;0.571211;0.000000;-0.000025;0.245484;0.000000
7.496000;0.099999;0.134180;0.000000;0.000006;-0.190483;0.000000;-0.000016;0.573022;0.000000;-0.000023;0.207179;0.000000
7.504000;0.099999;0.132675;0.000000;0.000006;-0.185893;0.000000;-0.000016;0.574524;0.000000;-0.000022;0.168299;0.000000
7.512000;0.099999;0.131206;0.000000;0.000006;-0.181292;0.000000;-0.000016;0.575713;0.000000;-0.000020;0.128842;0.000000
7.520000;0.099999;0.129774;0.000000;0.000006;-0.176682;0.000000;-0.000016;0.576584;0.000000;-0.000019;0.088809;0.000000
7.528000;0.099999;0.128379;0.000000;0.000005;-0.172067;0.000000;-0.000017;0.577133;0.000000;-0.000017;0.048200;0.000000
7.536000;0.099999;0.127021;0.000000;0.000005;-0.167449;0.000000;-0.000017;0.577354;0.000000;-0.000016;0.007016;0.000000
7.544000;0.099999;0.125700;0.000000;0.000005;-0.162830;0.000000;-0.000017;0.577243;0.000000;-0.000014;-0.034745;0.000000
7.552000;0.099999;0.124416;0.000000;0.000005;-0.158214;0.000000;-0.000017;0.576796;0.000000;-0.000012;-0.077082;0.000000
7.560000;0.099999;0.123168;0.000000;0.000005;-0.153602;0.000000;-0.000017;0.576009;0.000000;-0.000011;-0.119995;0.000000
7.568000;0.099999;0.121958;0.000000;0.000005;-0.148999;0.000000;-0.000017;0.574875;0.000000;-0.000009;-0.163484;0.000000
7.576000;0.099999;0.120784;0.000000;0.000005;-0.144405;0.000000;-0.000017;0.573391;0.000000;-0.000007;-0.207549;0.000000
7.584000;0.099999;0.119647;0.000000;0.000005;-0.139825;0.000000;-0.000017;0.571553;0.000000;-0.000005;-0.252190;0.000000
7.592000;0.099999;0.118547;0.000000;0.000004;-0.135261;0.000000;-0.000017;0.569355;0.000000;-0.000004;-0.297406;0.000000
7.600000;0.099999;0.117483;0.000000;0.000004;-0.130717;0.000000;-0.000017;0.566793;0.000000;-0.000002;-0.343199;0.000000
7.608000;0.099999;0.116456;0.000000;0.000004;-0.126194;0.000000;-0.000017;0.563862;0.000000;0.000000;-0.389568;0.000000
7.616000;0.099999;0.115464;0.000000;0.000004;-0.121696;0.000000;-0.000017;0.560558;0.000000;0.000002;-0.436513;0.000000
7.624000;0.100000;0.114508;0.000000;0.000004;-0.117226;0.000000;-0.000017;0.556876;0.000000;0.000004;-0.484034;0.000000
7.632000;0.100000;0.113588;0.000000;0.000004;-0.112787;0.000000;-0.000017;0.552812;0.000000;0.000006;-0.532131;0.000000
7.640000;0.100000;0.112704;0.000000;0.000004;-0.108382;0.000000;-0.000017;0.548361;0.000000;0.000008;-0.580804;0.000000
7.648000;0.100000;0.111854;0.000000;0.000003;-0.104014;0.000000;-0.000017;0.543517;0.000000;0.000010;-0.630053;0.000000
7.656000;0.100000;0.111039;0.000000;0.000003;-0.099687;0.000000;-0.000017;0.538278;0.000000;0.000012;-0.679878;0.000000
7.664000;0.100000;0.110259;0.000000;0.000003;-0.095403;0.000000;-0.000017;0.532638;0.000000;0.000014;-0.730279;0.000000
7.672000;0.100000;0.109513;0.000000;0.000003;-0.091166;0.000000;-0.000017;0.526592;0.000000;0.000016;-0.781256;0.000000
7.680000;0.100000;0.108800;0.000000;0.000003;-0.086978;0.000000;-0.000017;0.520136;0.000000;0.000018;-0.832809;0.000000
7.688000;0.100000;0.108121;0.000000;0.000003;-0.082844;0.000000;-0.000016;0.513266;0.000000;0.000020;-0.884938;0.000000
7.696000;0.100000;0.107475;0.000000;0.000003;-0.078767;0.000000;-0.000016;0.505976;0.000000;0.000022;-0.937643;0.000000
7.704000;0.100000;0.106861;0.000000;0.000003;-0.074750;0.000000;-0.000016;0.498262;0.000000;0.000024;-0.990924;0.000000
7.712000;0.100000;0.106278;0.000000;0.000002;-0.070796;0.000000;-0.000016;0.490119;0.000000;0.000026;-1.044782;0.000000
7.720000;0.100000;0.105728;0.000000;0.000002;-0.066909;0.000000;-0.000016;0.481544;0.000000;0.000028;-1.099215;0.000000
7.728000;0.100000;0.105208;0.000000;0.000002;-0.063093;0.000000;-0.000015;0.472530;0.000000;0.000031;-1.154224;0.000000
7.736000;0.100000;0.104718;0.000000;0.000002;-0.059350;0.000000;-0.000015;0.463075;0.000000;0.000033;-1.209809;0.000000
7.744000;0.100000;0.104258;0.000000;0.000002;-0.055685;0.000000;-0.000015;0.453172;0.000000;0.000035;-1.265970;0.000000
7.752000;0.100000;0.103827;0.000000;0.000002;-0.052100;0.000000;-0.000015;0.442818;0.000000;0.000037;-1.322707;0.000000
7.760000;0.100000;0.103424;0.000000;0.000002;-0.048601;0.000000;-0.000014;0.432007;0.000000;0.000040;-1.380020;0.000000
7.768000;0.100000;0.103049;0.000000;0.000002;-0.045190;0.000000;-0.000014;0.420736;0.000000;0.000042;-1.437910;0.000000
7.776000;0.100000;0.102701;0.000000;0.000001;-0.041870;0.000000;-0.000014;0.408999;0.000000;0.000045;-1.496375;0.000000
7.784000;0.100000;0.102379;0.000000;0.000001;-0.038647;0.000000;-0.000013;0.396792;0.000000;0.000047;-1.555416;0.000000
7.792000;0.100000;0.102082;0.000000;0.000001;-0.035523;0.000000;-0.000013;0.384111;0.000000;0.000049;-1.615033;0.000000
7.800000;0.100000;0.101810;0.000000;0.000001;-0.032502;0.000000;-0.000012;0.370950;0.000000;0.000052;-1.675226;0.000000
7.808000;0.100000;0.101562;0.000000;0.000001;-0.029589;0.000000;-0.000012;0.357306;0.000000;0.000054;-1.735996;0.000000
7.816000;0.100000;0.101336;0.000000;0.000001;-0.026787;0.000000;-0.000012;0.343173;0.000000;0.000057;-1.797341;0.000000
7.824000;0.100000;0.101133;0.000000;0.000001;-0.024100;0.000000;-0.000011;0.328547;0.000000;0.000059;-1.859262;0.000000
7.832000;0.100000;0.100951;0.000000;0.000001;-0.021531;0.000000;-0.000011;0.313423;0.000000;0.000062;-1.921759;0.000000
7.840000;0.100000;0.100788;0.000000;0.000001;-0.019086;0.000000;-0.000010;0.297797;0.000000;0.000064;-1.984833;0.000000
7.848000;0.100000;0.100645;0.000000;0.000001;-0.016768;0.000000;-0.000010;0.281664;0.000000;0.000067;-2.048482;0.000000
7.856000;0.100000;0.100519;0.000000;0.000001;-0.014581;0.000000;-0.000009;0.265020;0.000000;0.000070;-2.112707;0.000000
7.864000;0.100000;0.100411;0.000000;0.000000;-0.012529;0.000000;-0.000009;0.247859;0.000000;0.000072;-2.177509;0.000000
7.872000;0.100000;0.100319;0.000000;0.000000;-0.010616;0.000000;-0.000008;0.230178;0.000000;0.000075;-2.242886;0.000000
7.880000;0.100000;0.100241;0.000000;0.000000;-0.008848;0.000000;-0.000007;0.211972;0.000000;0.000078;-2.308839;0.000000
7.888000;0.100000;0.100177;0.000000;0.000000;-0.007226;0.000000;-0.000007;0.193235;0.000000;0.000080;-2.375369;0.000000
7.896000;0.100000;0.100125;0.000000;0.000000;-0.005757;0.000000;-0.000006;0.173964;0.000000;0.000083;-2.442474;0.000000
7.904000;0.100000;0.100084;0.000000;0.000000;-0.004444;0.000000;-0.000005;0.154154;0.000000;0.000086;-2.510156;0.000000
7.912000;0.100000;0.100053;0.000000;0.000000;-0.003292;0.000000;-0.000005;0.133800;0.000000;0.000089;-2.578413;0.000000
7.920000;0.100000;0.100031;0.000000;0.000000;-0.002305;0.000000;-0.000004;0.112898;0.000000;0.000092;-2.647246;0.000000
7.928000;0.100000;0.100016;0.000000;0.000000;-0.001487;0.000000;-0.000003;0.091443;0.000000;0.000094;-2.716656;0.000000
7.936000;0.100000;0.100007;0.000000;0.000000;-0.000843;0.000000;-0.000002;0.069430;0.000000;0.000097;-2.786641;0.000000
7.944000;0.100000;0.100002;0.000000;0.000000;-0.000378;0.000000;-0.000002;0.046855;0.000000;0.000100;-2.857203;0.000000
7.952000;0.100000;0.100000;0.000000;0.000000;-0.000095;0.000000;-0.000001;0.023713;0.000000;0.000103;-2.928340;0.000000
7.960000;0.100000;0.100000;0.000000;0.000000;-0.000095;0.000000;0.000000;0.000000;0.000000;261869966.136729;-7410716050934.642578;0.000000
7.968000;0.100000;0.100000;0.000000;0.000000;-0.000095;0.000000;0.000000;0.000000;0.000000;261869966.136729;-7410716050934.642578;0.000000
7.976000;0.100000;0.100000;0.000000;0.000000;-0.000095;0.000000;0.000000;0.000000;0.000000;261869966.136729;-7410716050934.642578;0.000000
7.984000;0.100000;0.100000;0.000000;0.000000;-0.000095;0.000000;0.000000;0.000000;0.000000;261869966.136729;-7410716050934.642578;0.000000
